File: DA/DA-BATTERY_ARCHIVE-180803_NMC_2_Grp5_35C_6.csv
Data_Point,Date_Time,Test_Time(s),Step_Time(s),Step_Index,Cycle_Index,Voltage(V),Current(A),Charge_Capacity(Ah),Discharge_Capacity(Ah),Charge_Energy(Wh),Discharge_Energy(Wh),ACR(Ohm),Internal Resistance(Ohm),dV/dt(V/s),dI/dt(A/s),Aux_Temperature_1,Aux_Temperature_2
1,"08-06-2018 07:41:50,815","10,0012","10,0012",1,1,"3,12872171401978",0,0,0,0,0,,,"1,23977661132813E-05",,"34,1478233337402","34,6529884338379"
82,"08-06-2018 07:53:58,003","737,189","677,0819",2,1,"3,67840909957886","1,50003051757813","0,282108008861542",0,"1,01376724243164",0,,,"0,000104904174804688",,"35,1899223327637","34,6718559265137"
163,"08-06-2018 08:07:28,291","1547,4773","1487,3702",2,1,"3,79930925369263","1,50001907348633","0,619723498821259",0,"2,27621340751648",0,,,"0,0001678466796875",,"35,5408325195313","34,6217002868652"
244,"08-06-2018 08:20:58,510","2357,6965","2297,5894",2,1,"3,88838148117065","1,49999809265137","0,957299113273621",0,"3,57253479957581",0,,,"0,000133514404296875",,"36,0819581005572","34,5802040100098"
325,"08-06-2018 08:34:28,769","3167,9553","3107,8482",2,1,"4,01686811447144","1,50005149841309","1,29489505290985",0,"4,90721750259399",0,,,"0,000143051147460938",,"36,4245872497559","34,5809783935547"
406,"08-06-2018 08:47:59,022","3978,2082","3918,1011",2,1,"4,11862897872925","1,50010108947754","1,63250458240509",0,"6,28077459335327",0,,,"0,000163078308105469",,"36,3022880738737","34,645679473877"
487,"08-06-2018 09:24:41,715","6180,900468","1680,004",3,1,"4,20043039321899","0,631351470947266","2,28078937530518",0,"8,99447917938232",0,,,"-8,58306884765625E-06",,"35,1828918942879","34,6034698486328"
568,"08-06-2018 09:47:31,868","7551,054484","649,9952",5,1,"3,87963533401489","-1,49995040893555","2,30119800567627","0,2708001","9,08020401000977","1,057708",,,"-9,34600830078125E-05",,"35,2731364582818","34,6425170898438"
649,"08-06-2018 10:01:02,141","8361,327184","1460,2679",5,1,"3,75721979141235","-1,49998760223389","2,30119800567627","0,6083885","9,08020401000977","2,347353",,,"-0,00016021728515625",,"35,5750885009766","34,7210121154785"
730,"08-06-2018 10:14:32,401","9171,587484","2270,5282",5,1,"3,6443076133728","-1,49992561340332","2,30119800567627","0,9459808","9,08020401000977","3,596996",,,"-8,392333984375E-05",,"35,5611038208008","34,564811706543"
811,"08-06-2018 10:28:02,647","9981,833784","3080,7745",5,1,"3,51695585250855","-1,49995517730713","2,30119800567627","1,283553","9,08020401000977","4,805885",,,"-0,00014495849609375",,"35,3043897344484","34,6181373596191"
892,"08-06-2018 10:41:32,915","10792,101484","3891,0422",5,1,"3,42018938064575","-1,49989700317383","2,30119800567627","1,621136","9,08020401000977","5,975893",,,"-0,000138282775878906",,"35,4888572692871","34,6918182373047"
973,"08-06-2018 10:55:03,190","11602,376484","4701,3172",5,1,"3,29394292831421","-1,49989223480225","2,30119800567627","1,958723","9,08020401000977","7,10996",,,"-0,000194549560546875",,"35,9553756713867","34,6948585510254"
1054,"08-06-2018 11:07:33,330","12352,515884","5451,4566",5,1,"2,81891775131226","-1,49990940093994","2,30119800567627","2,271243","9,08020401000977","8,094359",,,"-0,00230121612548828",,"36,5976015954472","34,5623207092285"
1135,"08-06-2018 11:09:31,251","12470,437284","5569,378",5,1,"2,00610876083374","-1,4998836517334","2,30119800567627","2,320375","9,08020401000977","8,21965",,,"-0,0192708969116211",,"36,8988280310044","34,6527483981277"
1216,"08-06-2018 11:24:57,324","13396,51072","325,5555",2,2,"3,58129167556763","1,50002670288086","0,135644376277924",0,"0,460631847381592",0,,,"0,000538825988769531",,"35,3576049804688","34,7196655273438"
1297,"08-06-2018 11:38:27,554","14206,74132","1135,7861",2,2,"3,73264455795288","1,50007438659668","0,473230868577957",0,"1,69902431964874",0,,,"0,000197410583496094",,"35,7021484375","34,6294555664063"
1378,"08-06-2018 11:51:57,799","15016,98642","1946,0312",2,2,"3,83703279495239","1,50004577636719","0,810828328132629",0,"2,97920870780945",0,,,"0,000113487243652344",,"35,914176940918","34,6445960998535"
1459,"08-06-2018 12:05:28,092","15827,27952","2756,3243",2,2,"3,95152616500855","1,50005149841309","1,14844214916229",0,"4,29238891601563",0,,,"0,000203132629394531",,"36,3700561523438","34,6601333618164"
1540,"08-06-2018 12:18:58,342","16637,52932","3566,5741",2,2,"4,06909418106079","1,50005340576172","1,48604810237885",0,"5,64749145507813",0,,,"0,000125885009765625",,"36,4752498092534","34,5890350341797"
1621,"08-06-2018 12:32:28,598","17447,78492","4376,8297",2,2,"4,1817307472229","1,5000114440918","1,8236483335495",0,"7,03905725479126",0,,,"0,0001678466796875",,"36,2420727684268","34,7323379516602"
1702,"08-06-2018 13:18:33,571","20212,756968","259,4701",5,2,"3,90649843215942","-1,49996757507324","2,31680750846863","0,108099","9,11008739471436","0,4235205",,,"-4,86373901367188E-05",,"34,9506988525391","34,6846008300781"
1783,"08-06-2018 13:32:03,839","21023,024968","1069,7381",5,2,"3,81311559677124","-1,49994277954102","2,31680750846863","0,4456771","9,11008739471436","1,729497",,,"-0,000188827514648438",,"35,5019187927246","34,5801239013672"
1864,"08-06-2018 13:45:34,104","21833,290468","1880,0036",5,2,"3,69475317001343","-1,5000171661377","2,31680750846863","0,7832606","9,11008739471436","2,995832",,,"-0,000148773193359375",,"35,6623003757968","34,5972175598145"
1945,"08-06-2018 13:59:04,331","22643,517368","2690,2305",5,2,"3,57300519943237","-1,49998378753662","2,31680750846863","1,120836","9,11008739471436","4,223068",,,"-0,000237464904785156",,"35,4447780885252","34,6855659484863"
2026,"08-06-2018 14:12:34,562","23453,747868","3500,461",5,2,"3,45717573165894","-1,49998760223389","2,31680750846863","1,458418","9,11008739471436","5,408365",,,"-9,25064086914063E-05",,"35,3958168029785","34,6366767883301"
2107,"08-06-2018 14:26:04,847","24264,033168","4310,7463",5,2,"3,35329961776733","-1,49993801116943","2,31680750846863","1,79601","9,11008739471436","6,559628",,,"-0,000149726867675781",,"35,9139514452545","34,7054290771484"
2188,"08-06-2018 14:39:35,101","25074,286768","5120,9999",5,2,"3,16303014755249","-1,49995517730713","2,31680750846863","2,133593","9,11008739471436","7,668225",,,"-0,000714302062988281",,"36,2511291503906","34,6123580932617"
2269,"08-06-2018 14:46:17,918","25477,104368","5523,8175",5,2,"2,37506151199341","-1,49992942810059","2,31680750846863","2,301418","9,11008739471436","8,16112",,,"-0,00918865203857422",,"36,7868563269713","34,6464920043945"
2350,"08-06-2018 14:57:44,543","26163,73016","59,7791",2,3,"3,24329328536987","1,50003814697266","0,0249008350074291",0,"0,0779359117150307",0,,,"0,00286006927490234",,"35,4888581088081","34,6249313354492"
2431,"08-06-2018 15:09:38,164","26877,35146","773,4004",2,3,"3,67358636856079","1,50002288818359","0,322241872549057",0,"1,1392924785614",0,,,"8,96453857421875E-05",,"35,5660133361816","34,6571769714356"
2512,"08-06-2018 15:23:08,418","27687,60466","1583,6536",2,3,"3,79980134963989","1,50005531311035","0,659842014312744",0,"2,4011607170105",0,,,"0,000113487243652344",,"35,6721076965332","34,5964584350586"
2593,"08-06-2018 15:36:38,657","28497,84456","2393,8935",2,3,"3,89205026626587","1,50003814697266","0,997430860996246",0,"3,6982250213623",0,,,"0,00014495849609375",,"36,110034942627","34,5487098693848"
2674,"08-06-2018 15:50:08,910","29308,09766","3204,1466",2,3,"4,02088594436646","1,50004196166992","1,33502006530762",0,"5,03415489196777",0,,,"0,000146865844726563",,"36,5778427124023","34,6660766601563"
2755,"08-06-2018 16:03:39,173","30118,36036","4014,4093",2,3,"4,12487459182739","1,50011825561523","1,67262864112854",0,"6,40929126739502",0,,,"0,000110626220703125",,"36,262321472168","34,6361312866211"
2836,"08-06-2018 16:43:30,165","32509,350228","120,0032",4,3,"4,12065744400024",0,"2,31799530982971",0,"9,1123161315918",0,,,"-6,00814819335938E-05",,"35,0270080566406","34,6889953613281"
2917,"08-06-2018 17:03:10,117","33689,30504","699,8551",5,3,"3,87109327316284","-1,49998569488525","2,31799530982971","0,2915744","9,1123161315918","1,137873",,,"-0,0001220703125",,"35,2927551269531","34,5924835205078"
2998,"08-06-2018 17:16:40,369","34499,55724","1510,1073",5,3,"3,74545621871948","-1,50001907348633","2,31799530982971","0,629177","9,1123161315918","2,423642",,,"-0,000147819519042969",,"35,6643328700627","34,6756248474121"
3079,"08-06-2018 17:30:10,635","35309,82314","2320,3732",5,3,"3,63173341751099","-1,50002765655518","2,31799530982971","0,9667739","9,1123161315918","3,669247",,,"-0,000140190124511719",,"35,574386168969","34,5948181152344"
3160,"08-06-2018 17:43:40,871","36120,05904","3130,6091",5,3,"3,50434923171997","-1,50003337860107","2,31799530982971","1,304364","9,1123161315918","4,87376",,,"-0,00016021728515625",,"35,2745666503906","34,6313972473145"
3241,"08-06-2018 17:57:11,101","36930,28874","3940,8388",5,3,"3,40873956680298","-1,50000095367432","2,31799530982971","1,641952","9,1123161315918","6,039975",,,"-0,000152587890625",,"35,5032234191895","34,6704788208008"
3322,"08-06-2018 18:10:41,329","37740,51704","4751,0671",5,3,"3,28769159317017","-1,50000858306885","2,31799530982971","1,979533","9,1123161315918","7,170298",,,"-0,000115394592285156",,"35,9422724565195","34,7719573974609"
3403,"08-06-2018 18:22:36,319","38455,50754","5466,0576",5,3,"2,75378465652466","-1,49997997283936","2,31799530982971","2,277437","9,1123161315918","8,102779",,,"-0,00315952301025391",,"36,6181969894829","34,715259552002"
3484,"08-06-2018 18:29:07,254","38846,439496","300,0036",6,3,"2,68452215194702",0,"2,31799530982971","2,315299","9,1123161315918","8,196771",,,"0,000386238098144531",,"36,2206649780273","34,7805290222168"
3565,"08-06-2018 21:02:49,849","48069,031576","2040,0025",12,4,"3,25444269180298","-3,0001392364502","2,31648516654968","1,699957","9,10611629486084","5,999302",,,"-0,000376701354980469",,"38,1480522155762","34,6541061401367"
3646,"08-06-2018 23:53:31,764","58310,949604","2040,0035",17,4,"3,25214052200317","-3,00007820129395","4,62683296203613","4,005941","18,1872634887695","13,85072",,,"-0,000308990478515625",,"38,0340917722577","34,5766220092773"
3727,"08-07-2018 02:35:15,295","68014,4795","2040,003",17,5,"3,26149320602417","-3,00017833709717","2,33376908302307","1,69995","9,14661026000977","6,017451",,,"-0,00028228759765625",,"38,0720863342285","34,7211303710938"
3808,"08-07-2018 05:17:42,190","77761,377044","2040,0016",17,6,"3,26690626144409","-3,00001621246338","2,34094047546387","1,699952","9,17043113708496","6,028082",,,"-0,000264167785644531",,"38,1497535705566","34,7053298950195"
3889,"08-07-2018 08:00:23,409","87522,596304","2040,0023",17,7,"3,26937818527222","-3,00005531311035","2,3423593044281","1,699959","9,17412281036377","6,03222",,,"-0,000286102294921875",,"38,0428352000114","34,7385025024414"
3970,"08-07-2018 10:45:03,245","97402,426424","2160,0064",17,8,"3,2376914024353","-3,00013446807861","2,34159135818481","1,799987","9,17119312286377","6,358236",,,"-0,000291824340820313",,"38,3169479370117","34,7918586730957"
4051,"08-07-2018 13:25:57,154","107056,339984","2040,0038",17,9,"3,27446794509888","-3,00010967254639","2,34689950942993","1,699983","9,18847846984863","6,042712",,,"-0,000237464904785156",,"38,0300674438477","34,7254333496094"
4132,"08-07-2018 16:07:10,561","116729,744312","1920,0033",17,10,"3,30772066116333","-3,00010299682617","2,35322904586792","1,599978","9,21013355255127","5,723473",,,"-0,000211715698242188",,"37,803649826339","34,7576713562012"
4213,"08-07-2018 18:48:45,715","126424,8967","1800,0009",17,11,"3,34226751327515","-2,99989795684814","2,35841846466064","1,499884","9,22708702087402","5,401194",,,"-0,000253677368164063",,"37,7500305175781","34,7839164733887"
4294,"08-07-2018 21:30:42,990","136142,172888","1680,0041",17,12,"3,38031435012817","-3,0001974105835","2,3645646572113","1,399981","9,24770259857178","5,074473",,,"-0,00029754638671875",,"37,5614395141602","34,7060775756836"
4375,"08-08-2018 00:13:05,656","145884,837276","1560,0003",17,13,"3,42578744888306","-3,00015544891357","2,37125205993652","1,300011","9,26981639862061","4,745796",,,"-0,000363349914550781",,"37,2996521651154","34,5493202209473"
4456,"08-08-2018 02:55:55,805","155654,992124","1440,0026",17,14,"3,47547674179077","-3,00005722045898","2,37828922271729","1,199979","9,2927885055542","4,411033",,,"-0,0003509521484375",,"37,4301529277165","34,7744102478027"
4537,"08-08-2018 05:41:11,963","165571,14678","1440,0034",17,15,"3,48418474197388","-3,00007820129395","2,38399887084961","1,2","9,3110408782959","4,420639",,,"-0,000335693359375",,"37,2616157531738","34,7305641174316"
4618,"08-08-2018 08:26:54,485","175513,678776","1440,0034",17,16,"3,49285364151001","-3,00010776519775","2,39030933380127","1,199977","9,33156585693359","4,42955",,,"-0,00034332275390625",,"37,3014412284334","34,7488861083984"
4699,"08-08-2018 11:11:02,138","185361,324744","1320,0005",17,17,"3,53963613510132","-3,00001239776611","2,39569449424744","1,099955","9,34869575500488","4,085277",,,"-0,000318527221679688",,"37,2351188659668","34,7880249023438"
4780,"08-08-2018 13:53:29,256","195108,438004","1080,0007",17,18,"3,61373281478882","-3,00000953674316","2,4001247882843","0,8999831","9,36304187774658","3,375307",,,"-0,000242233276367188",,"37,1690177917481","34,7738914489746"
4861,"08-08-2018 16:36:12,877","204872,068836","840,0036",17,19,"3,67903661727905","-3,00003910064697","2,40353131294251","0,6999986","9,37367534637451","2,649896",,,"-0,000308036804199219",,"36,972412109375","34,8094749450684"
4942,"08-08-2018 19:19:10,193","214649,376208","600,0023",17,20,"3,75402879714966","-2,9998950958252","2,40562510490418","0,4999658","9,37924766540527","1,909111",,,"-0,000286102294921875",,"37,0275535583496","35,1470260620117"
5023,"08-08-2018 22:02:18,589","224437,762364","360,0042",17,21,"3,81537008285522","-3,00014686584473","2,40824055671692","0,2999988","9,38774299621582","1,152924",,,"-0,000140190124511719",,"35,9159927368164","34,8698577880859"
5104,"08-09-2018 00:45:37,092","234236,286116","120,002",17,22,"3,8505654335022","-3,00011348724365","2,40953731536865","0,1000065","9,39101314544678","0,3865825",,,"-0,000200271606445313",,"35,367301940918","34,8670539855957"
5185,"08-09-2018 03:21:02,617","243561,801296","1800,0055",15,23,"4,2004599571228","0,34657096862793","2,41119337081909","0,00001999914","9,39651966094971","0,00003993003",,,"2,00269603924828E-05",,"35,0538088955169","34,6446873446751"
5266,"08-09-2018 06:04:34,135","253373,31656","1560,0023",15,24,"4,20049715042114","0,457866668701172","2,38547372817993","0,00001516604","9,2871150970459","0,00003028327",,,"4,1961669921875E-05",,"35,1924324819108","34,8301620483398"
5347,"08-09-2018 08:46:10,328","263069,522748","1200,0042",15,25,"4,20049238204956","0,666482925415039","2,33068418502808","0,00001866597","9,05588245391846","0,00003726867",,,"3,14712524414063E-05",,"35,3276901245117","34,7232246398926"
5428,"08-09-2018 11:27:49,665","272768,837196","840,0015",15,26,"4,20046281814575","0,892061233520508","2,25368499755859","0,00001524975","8,73163223266602","0,00003044787",,,"-4,76837158203125E-06",,"35,4864730834961","34,7807121276856"
5509,"08-09-2018 14:11:31,618","282590,824236","600,0006",15,27,"4,20031976699829","1,03328323364258","2,19028520584106","0,00001541755","8,46459770202637","0,00003078992",,,"-1,9073486328125E-06",,"35,5536385429289","34,7706108093262"
5590,"08-09-2018 16:53:15,355","292294,533496","240,0018",15,28,"4,20031404495239","1,24667167663574","2,07723641395569","0,00001999884","7,98915958404541","0,00003993724",,,"-3,62396240234375E-05",,"35,780162823127","34,7696571350098"
5671,"08-09-2018 19:35:30,395","302029,580952","4680,0024",14,29,"4,1869158744812","1,50006294250488","1,94997453689575","0,0000199163","7,45483493804932","0,00003976794",,,"0,000181198120117188",,"35,789249420166","34,9072570800781"
5752,"08-09-2018 22:19:13,891","311853,060036","4440,0027",14,30,"4,14581632614136","1,50000953674316","1,84997463226318","0,00001608433","7,03783082962036","0,00003211072",,,"0,000154495239257813",,"35,6931533813477","34,6600532531738"
5833,"08-10-2018 01:04:57,836","321797,03214","4320,0046",14,31,"4,12448167800903","1,50000762939453","1,79996645450592","0,0000145838","6,83073663711548","0,00002911808",,,"0,000153541564941406",,"35,6202888949362","34,6546783447266"
5914,"08-10-2018 03:46:43,719","331502,898988","3960,0005",14,32,"4,06762552261353","1,50003433227539","1,64991891384125","0,00002725078","6,21598100662231","0,00005440982",,,"0,000133514404296875",,"35,7729911804199","34,5461845397949"
5995,"08-10-2018 06:30:30,782","341329,984052","3720,0024",14,33,"4,0359148979187","1,50002098083496","1,54989731311798","0,00002000221","5,81057453155518","0,00003994298",,,"0,000107765197753906",,"35,8458976745606","34,7150039672852"
6076,"08-10-2018 09:14:18,914","351158,082824","3480,0021",14,34,"4,00552701950073","1,49996757507324","1,44992291927338","0,00001933521","5,40841674804688","0,0000386073",,,"0,000144004821777344",,"35,8971366849099","34,708179473877"
6157,"08-10-2018 11:56:08,194","360867,361144","3120,0017",14,35,"3,9576563835144","1,50000953674316","1,29992783069611","0,00002166811","4,81112813949585","0,00004326756",,,"0,000173568725585938",,"35,9241218566895","34,6777076721191"
6238,"08-10-2018 14:37:57,105","370576,279316","2760,0016",14,36,"3,90029001235962","1,50007629394531","1,14995539188385","0,00002333273","4,22150135040283","0,00004659007",,,"0,000162124633789063",,"35,9961280822754","34,7890548706055"
6319,"08-10-2018 17:19:47,335","380286,540876","2400,0014",14,37,"3,84030294418335","1,50004386901855","0,999965727329254","0,00002208332","3,64095830917358","0,0000440967",,,"0,000180244445800781",,"35,8580131530762","34,7531509399414"
6400,"08-10-2018 20:01:35,712","389994,901492","2040,0008",14,38,"3,79049921035767","1,50005912780762","0,849982798099518","0,00002616775","3,06890797615051","0,0000522469",,,"0,000104904174804688",,"35,8154373168945","35,2097587585449"
6481,"08-10-2018 22:45:23,687","399822,870592","1800,0019",14,39,"3,76394987106323","1,50003814697266","0,749974191188812","0,00002133173","2,69109845161438","0,00004259044",,,"0,000109672546386719",,"35,4358863830566","34,7038650512695"
6562,"08-11-2018 01:27:12,618","409531,820732","1440,001",14,40,"3,7240948677063","1,50008010864258","0,599987030029297","0,0000253315","2,12921786308289","0,00005057604",,,"0,000130653381347656",,"35,6461410996286","34,7242126464844"
6643,"08-11-2018 04:09:01,861","419241,035316","1080,0023",14,41,"3,66086530685425","1,50000762939453","0,449981659650803","0,00002466622","1,57505524158478","0,00004924777",,,"0,00018310546875",,"35,7426338195801","34,6022109985352"
6724,"08-11-2018 06:50:51,565","428950,73812","720,0005",14,42,"3,60492372512817","1,50009346008301","0,299991101026535","0,00002158482","1,03037810325623","0,00004310326",,,"0,000150680541992188",,"36,1996459960938","34,6682853698731"
6805,"08-11-2018 09:32:40,055","438659,263276","360,0006",14,43,"3,52482461929321","1,50001525878906","0,149987950921059","0,0000281675","0,49409082531929","0,00005624619",,,"0,000538825988769531",,"36,7515347210336","34,5758323669434"
6886,"08-11-2018 12:14:28,961","448368,15138","0,0033",18,44,"1,99744081497192","-2,99976062774658",0,"0,00000199984",0,"0,000003994561",,,"-0,0153231531245439",,"38,8263204133201","35,0137401864537"
6967,"08-11-2018 15:00:03,279","458302,472804","2760,0004",17,44,"2,99003076553345","-2,99984931945801","2,41192960739136","2,299902","9,39274215698242","8,145516",,,"-0,0020294189453125",,"38,0250968933106","34,6267967224121"
7048,"08-11-2018 17:41:50,601","468009,785244","2400,0003",17,45,"3,26947641372681","-2,99989986419678","2,41167092323303","1,999888","9,3915491104126","7,192013",,,"-0,000354766845703125",,"37,2771949721812","34,6368942260742"
7129,"08-11-2018 20:23:39,036","477718,213796","2040,002",17,46,"3,36105871200562","-2,99983310699463","2,41177892684937","1,699933","9,3919620513916","6,197609",,,"-0,000207901000976563",,"36,7405738298922","34,5486450195313"
7210,"08-11-2018 23:05:27,349","487426,541044","1680,0009",17,47,"3,45528078079224","-3,00009918212891","2,41143083572388","1,399959","9,39046001434326","5,176192",,,"-0,000323295593261719",,"36,6376075744629","34,6413917541504"
7291,"08-12-2018 01:51:15,165","497374,345804","1560,0014",17,48,"3,49480867385864","-3,00018692016602","2,41156721115112","1,299913","9,39112567901611","4,828585",,,"-0,000349044799804688",,"36,8552284240723","34,7362976074219"
7372,"08-12-2018 04:33:03,231","507082,411808","1200,001",17,49,"3,6100058555603","-3,00013446807861","2,41136741638184","0,9999768","9,39019012451172","3,762628",,,"-0,000285148620605469",,"36,9749717712402","34,9634132385254"
7453,"08-12-2018 07:16:50,963","516910,150932","960,0016",17,50,"3,67158174514771","-2,99984741210938","2,41121125221252","0,7999594","9,38951301574707","3,034474",,,"-0,000290870666503906",,"37,1451759338379","35,1045188903809"
7534,"08-12-2018 09:58:37,774","526616,939084","600,0014",17,51,"3,77338552474976","-3,00019073486328","2,41048955917358","0,4999997","9,3863639831543","1,918402",,,"-0,000349998474121094",,"36,1406820190027","34,5999183654785"
7615,"08-12-2018 12:40:23,607","536322,809932","240,0014",17,52,"3,84817266464233","-3,00012874603272","2,41049003601074","0,2000118","9,38637733459473","0,7736259",,,"-0,000133514404296875",,"35,409290644971","34,5824241638184"
7696,"08-12-2018 15:24:10,287","546149,485032","600,0013",16,53,"4,15662908554077",0,"2,4107768535614","0,00002300059","9,3872880935669","0,00004592204",,,"-0,0000152587890625",,"34,80119","34,6595344543457"
7777,"08-12-2018 17:59:55,746","555494,92042","1680,0036",15,54,"4,20043992996216","0,364339828491211","2,39897727966309","0,00001750096","9,33817100524902","0,00003494429",,,"-3,52859497070313E-05",,"35,4316750219998","35,0746421813965"
7858,"08-12-2018 20:41:40,545","565199,740792","1320,0018",15,55,"4,20048475265503","0,561243057250977","2,35311102867126","0,00002133481","9,14549827575684","0,00004260035",,,"-3,14712524414063E-05",,"35,0281791687012","34,5700187683106"
7939,"08-12-2018 23:25:24,537","575023,777332","1080,0024",15,56,"4,20034551620483","0,716493606567383","2,30987930297852","0,00001558454","8,96383094787598","0,00003111844",,,"-0,00006103515625",,"35,2760047912598","34,6955947875977"
8020,"08-13-2018 02:07:08,740","584727,943644","720,0018",15,57,"4,20023679733276","0,954135894775391","2,22665214538574","0,00002225234","8,61428451538086","0,00004443149",,,"-9,5367431640625E-05",,"35,500789642334","34,8696250915527"
8101,"08-13-2018 04:48:53,776","594432,963824","360,0031",15,58,"4,20049619674683","1,18009567260742","2,12038993835449","0,00001941559","8,16781997680664","0,00003877006",,,"2,09808349609375E-05",,"35,6651573181152","34,8359603881836"
8182,"08-13-2018 07:30:38,579","604137,758028","4773,4862",14,59,"4,20000219345093","1,50002479553223","1,98881161212921","0,00001733445","7,61515712738037","0,00003461675",,,"0,000109020319916647",,"35,708911895752","34,7997550964356"
8263,"08-13-2018 10:12:48,349","613867,587172","4440,0003",14,60,"4,14588975906372","1,50001525878906","1,8498547077179","0,00002199819","7,0350661277771","0,00004392886",,,"0,0002288818359375",,"35,6848869323731","34,7331008911133"
8344,"08-13-2018 12:54:32,569","623571,754484","4080,0009",14,61,"4,08518075942993","1,50003433227539","1,69988346099854","0,00001741585","6,41802072525024","0,00003477888",,,"0,000149726867675781",,"35,8961983144281","34,8027496337891"
8425,"08-13-2018 15:36:15,822","633275,003292","3720,0001",14,62,"4,0355658531189","1,4999885559082","1,54991161823273","0,00001766699","5,80928945541382","0,00003528017",,,"0,000123977661132813",,"36,0152130126953","34,7847595214844"
8506,"08-13-2018 18:19:58,253","643097,469368","3480,0033",14,63,"4,00538778305054","1,50003051757813","1,44992828369141","0,00002241462","5,40743589401245","0,00004475988",,,"0,000146865844726563",,"35,9108924865723","34,7329368591309"
8587,"08-13-2018 21:01:38,500","652797,70312","3120,0024",14,64,"3,957848072052","1,50003623962402","1,29994893074036","0,00002225169","4,81032943725586","0,00004443745",,,"0,000164031982421875",,"35,9062232971191","34,6921043395996"
8668,"08-13-2018 23:43:17,407","662496,559816","2760,0004",14,65,"3,90090894699097","1,50002288818359","1,1499388217926","0,00001699975","4,22078609466553","0,00003394285",,,"0,000214576721191406",,"35,8067778738716","34,6609420776367"
8749,"08-14-2018 02:26:56,413","672315,61782","2520,0034",14,66,"3,85998296737671","1,49996376037598","1,04994058609009","0,00002233443","3,83259963989258","0,00004460094",,,"0,000156402587890625",,"35,8652076721191","34,8107223510742"
8830,"08-14-2018 05:12:36,531","682255,7192","2400,0012",14,67,"3,84056329727173","1,49996185302734","0,999927282333374","0,00001758392","3,64000678062439","0,00003510809",,,"0,00018310546875",,"35,7571181522531","34,6997566223145"
8911,"08-14-2018 07:54:16,992","691956,215596","2040,0006",14,68,"3,79019975662231","1,5000114440918","0,849942922592163","0,00001750156","3,06795930862427","0,00003494944",,,"0,000117301940917969",,"35,5503959655762","34,7732086181641"
8992,"08-14-2018 10:35:56,025","701655,205564","1680,0009",14,69,"3,75140810012817","1,50003051757813","0,69995379447937","0,00002016613","2,50250768661499","0,00004026688",,,"8,0108642578125E-05",,"35,4979591369629","34,7918586730957"
9073,"08-14-2018 13:19:34,503","711473,672044","1440,0022",14,70,"3,72349309921265","1,5000114440918","0,599965214729309","0,00002800002","2,12871360778809","0,0000559054",,,"9,82284545898438E-05",,"35,6462211608887","34,8642120361328"
9154,"08-14-2018 16:01:12,286","721171,418628","1080,0043",14,71,"3,66044282913208","1,50001335144043","0,449954509735107","0,00002441549","1,57463395595551","0,00004875887",,,"0,000191688537597656",,"35,9062309677014","34,7926139831543"
9235,"08-14-2018 18:44:48,816","730987,981064","840,002",14,72,"3,62152147293091","1,50003051757813","0,349973350763321","0,00002658723","1,21077144145966","0,00005309625",,,"0,000165939331054688",,"36,0523071289063","34,7744102478027"
9316,"08-14-2018 21:26:21,183","740680,351096","480,0017",14,73,"3,56854391098022","1,50002861022949","0,199988827109337","0,00002233128","0,671494543552399","0,00004458495",,,"0,000157356262207031",,"36,525924905089","34,7516250610352"
9397,"08-15-2018 00:07:53,843","750372,985072","120,0031",14,74,"3,26226949691772","1,50005912780762","0,0499971359968185","0,00002224957","0,15182763338089","0,00004442543",,,"0,00212383270263672",,"37,9986605490377","34,7613410949707"
9478,"08-15-2018 02:53:20,928","760300,130604","2880,0007",17,74,"2,21529340744019","-3,00011825561523","2,40572953224182","2,399938","9,36744022369385","8,425921",,,"-0,0271205902099609",,"38,278247833252","34,556209564209"
9559,"08-15-2018 05:34:54,204","769993,356404","2520,004",17,75,"3,22865724563599","-3,00004768371582","2,40550875663757","2,099871","9,36651134490967","7,521043",,,"-0,000380516052246094",,"37,4470558166504","34,7429008483887"
9640,"08-15-2018 08:16:27,066","779686,249424","2160,0023",17,76,"3,33429479598999","-3,00001239776611","2,40553331375122","1,799877","9,36658191680908","6,535301",,,"-0,000262260437011719",,"36,9859007527965","34,7687492370606"
9721,"08-15-2018 10:58:00,194","789379,406188","1800,0022",17,77,"3,42188787460327","-3,00008296966553","2,40563631057739","1,499908","9,36708068847656","5,522418",,,"-0,000237464904785156",,"36,7569046020508","34,7117424011231"
9802,"08-15-2018 13:39:32,707","799071,906592","1440,001",17,78,"3,5373682975769","-3,00000381469727","2,40536546707153","1,199925","9,36602401733398","4,479198",,,"-0,000351905822753906",,"36,8398971557617","34,6816825866699"
9883,"08-15-2018 16:21:04,321","808763,491992","1080,0024",17,79,"3,64343881607056","-3,0000057220459","2,40507674217224","0,899946","9,36485481262207","3,401306",,,"-0,000229835510253906",,"36,798770904541","34,7752151489258"
9964,"08-15-2018 19:02:34,308","818453,502628","720,002",17,80,"3,73883008956909","-3,00013065338135","2,40445327758789","0,5999678","9,36241340637207","2,294552",,,"-0,000319480895996094",,"36,4432792663574","34,6689758300781"
10045,"08-15-2018 21:44:02,483","828141,677056","360,0003",17,81,"3,83155202865601","-3,00006771087647","2,40424990653992","0,3000041","9,3617696762085","1,157913",,,"-0,000165939331054688",,"35,7838627995659","34,7780723571777"
10126,"08-16-2018 00:25:30,799","837830,009076","600,0071",16,82,"4,15687990188599",0,"2,40407299995422","0,00002200047","9,36099624633789","0,00004392659",,,"5,70998098698478E-06",,"34,7823421554622","34,7759203882229"
10207,"08-16-2018 03:02:58,326","847277,512868","1800,0019",15,83,"4,20035123825073","0,308280944824219","2,40342688560486","0,00001916827","9,35833168029785","0,00003827936",,,"7,34329223632813E-05",,"35,1316184353829","34,8768310546875"
10288,"08-16-2018 05:44:24,019","856963,200628","1440,004",15,84,"4,20039510726929","0,482437133789063","2,36429953575134","0,00002008339","9,19407939910889","0,00004010824",,,"9,918212890625E-05",,"35,1733360290527","34,7637634277344"
10369,"08-16-2018 08:25:49,432","866648,622944","1080,0027",15,85,"4,20046186447144","0,708993911743164","2,30561232566834","0,00001999904","8,94752216339111","0,00003993056",,,"-2,47955322265625E-05",,"35,3570861816406","34,7331428527832"
10450,"08-16-2018 11:07:15,789","876335,0293","720,0024",15,86,"4,20036935806274","0,950962066650391","2,22217440605164","0,00001983254","8,59709072113037","0,00003959896",,,"9,5367431640625E-07",,"35,4641380282911","34,7302627563477"
10531,"08-16-2018 13:48:41,666","886020,846132","360,0024",15,87,"4,20042276382446","1,17930793762207","2,11566781997681","0,00002141844","8,14980316162109","0,00004276733",,,"-4,00543212890625E-05",,"35,6382484436035","34,6907730102539"
10612,"08-16-2018 16:30:07,238","895706,4249","4762,5276",14,88,"4,20000696182251","1,50002098083496","1,98412930965424","0,00002375004","7,59737014770508","0,00004742323",,,"0,000126727006989535",,"35,8037223815918","34,8028717041016"
10693,"08-16-2018 19:12:09,998","905429,191144","4440,0013",14,89,"4,14822626113892","1,50003814697266","1,84979355335236","0,00002524991","7,03675031661987","0,00005041757",,,"0,00018310546875",,"35,7202416054537","34,7202682495117"
10774,"08-16-2018 21:55:32,358","915231,535468","4200,0021",14,90,"4,10633897781372","1,50006866455078","1,74979174137115","0,00002374975","6,62405633926392","0,00004742017",,,"0,000200271606445313",,"35,7177429199219","34,764030456543"
10855,"08-17-2018 00:36:54,545","924913,74752","3840,0018",14,91,"4,05250597000122","1,50002479553223","1,59981596469879","0,00002308612","6,0124363899231","0,00004609941",,,"0,000145912170410156",,"36,1910210614606","35,2796859741211"
10936,"08-17-2018 03:18:16,239","934595,434484","3480,0008",14,92,"4,00654935836792","1,50000381469727","1,44984078407288","0,00001758385","5,40822505950928","0,00003511501",,,"0,000173568725585938",,"35,927051636262","34,7903060913086"
11017,"08-17-2018 05:59:36,354","944275,549784","3120,0009",14,93,"3,95900583267212","1,50000953674316","1,29984939098358","0,00002008225","4,81072235107422","0,00004010336",,,"0,000112533569335938",,"35,9018096923828","34,7278480529785"
11098,"08-17-2018 08:40:56,396","953955,539412","2760,0064",14,94,"3,90280389785767","1,50003433227539","1,14997386932373","0,00002008239","4,22198104858398","0,0000400979",,,"0,000213623046875",,"35,8724323780069","34,6695175170898"
11179,"08-17-2018 11:24:12,528","963751,718752","2520,0027",14,95,"3,86202383041382","1,50009727478027","1,04998099803925","0,00001191796","3,83369827270508","0,00002379916",,,"0,000179290771484375",,"35,755714265383","34,6694450378418"
11260,"08-17-2018 14:07:28,724","973547,965628","2280,0011",14,96,"3,82392740249634","1,50007438659668","0,949979603290558","0,00001016767","3,44944286346436","0,00002030009",,,"0,000165939331054688",,"35,7146949768066","34,8227844238281"
11341,"08-17-2018 16:50:43,925","983343,099792","2040,0008",14,97,"3,79135274887085","1,50003623962402","0,849985003471375","0,00002500174","3,06876015663147","0,00004992093",,,"0,000123977661132813",,"35,5172996520996","34,6448020935059"
11422,"08-17-2018 19:33:57,225","993136,466984","1800,0029",14,98,"3,76441049575806","1,50004768371582","0,74999076128006","0,00002408162","2,69114065170288","0,00004808079",,,"0,000147819519042969",,"35,5629119873047","34,8477287292481"
11503,"08-17-2018 22:19:10,966","1003050,158756","1680,002",14,99,"3,75228357315063","1,50013542175293","0,699999928474426","0,00002599936","2,50324010848999","0,00005190239",,,"0,00011444091796875",,"35,717170715332","34,9140014648438"
11584,"08-18-2018 01:04:24,193","1012963,391876","1560,0013",14,100,"3,73979139328003","1,50007057189941","0,649996042251587","0,00002483578","2,31590270996094","0,00004958307",,,"9,05990600585938E-05",,"35,6212502642833","34,8067016601563"
11665,"08-18-2018 03:47:42,018","1022761,196772","2880,0037",14,101,"3,9236273765564","1,50006103515625","1,19997537136078","0,00002416651","4,41820573806763","0,00004824952",,,"0,000163078308105469",,"36,0430183410645","34,7645721435547"
11746,"08-18-2018 06:32:53,037","1032672,265904","2760,0015",14,102,"3,90329313278198","1,5000057220459","1,14997577667236","0,00001199946","4,22218084335327","0,00002396172",,,"0,0001678466796875",,"36,2919807325077","35,2293128967285"
11827,"08-18-2018 09:16:04,313","1042463,535644","2520,0035",14,103,"3,86254358291626","1,49999809265137","1,04996180534363","0,00001558414","3,83385467529297","0,00003111589",,,"0,000174522399902344",,"35,8819388238828","34,8314552307129"
11908,"08-18-2018 12:01:14,420","1052373,626736","2400,0063",14,104,"3,84280157089233","1,49999809265137","0,99997216463089","0,00002133267","3,64125061035156","0,00004259811",,,"0,000147819519042969",,"35,8264427185059","34,7304840087891"
11989,"08-18-2018 14:44:24,011","1062163,251476","2160,0016",14,105,"3,8072190284729","1,49995422363281","0,899959087371826","0,00001558199","3,25876641273499","0,00003111657",,,"0,000121116638183594",,"35,6815032958984","34,8655319213867"
12070,"08-18-2018 17:27:33,594","1071952,748344","1920,0001",14,106,"3,77749490737915","1,50008392333984","0,799976289272308","0,0000120822","2,87966704368591","0,00002412135",,,"0,000154495239257813",,"35,5796622641868","34,7725601196289"
12151,"08-18-2018 20:10:42,255","1081741,529416","1680,0037",14,107,"3,75236082077026","1,50005149841309","0,699986338615418","0,00002616733","2,50327777862549","0,00005224736",,,"8,96453857421875E-05",,"35,4907836914063","34,835880279541"
12232,"08-18-2018 22:55:49,453","1091648,599552","1560,0002",14,108,"3,73998022079468","1,5","0,649983167648315","0,00001566581","2,31596112251282","0,00003127984",,,"0,000136375427246094",,"35,9260444641113","35,1506156921387"
12313,"08-19-2018 01:40:56,012","1101555,214836","1440,0007",14,109,"3,72460126876831","1,50002098083496","0,599981904029846","0,0000152486","2,12935256958008","0,00003044788",,,"0,000143051147460938",,"35,4368667602539","34,6862297058106"
12394,"08-19-2018 04:24:01,561","1111340,782244","1200,002",14,110,"3,68441438674927","1,50002670288086","0,499997764825821","0,0000199997","1,75913846492767","0,00003993223",,,"0,000164985656738281",,"35,7388917852567","34,8984069824219"
12475,"08-19-2018 07:07:05,909","1121125,171904","960,0051",14,111,"3,64038705825806","1,50004196166992","0,399995774030685","0,00001533202","1,39270639419556","0,00003061247",,,"0,000150680541992188",,"35,9577903747559","34,7693138122559"
12556,"08-19-2018 09:52:09,311","1131028,508788","840,004",14,112,"3,62244272232056","1,5000114440918","0,349980771541595","0,00002058163","1,2110960483551","0,00004109718",,,"0,000140190124511719",,"36,0479243474088","34,7647171020508"
12637,"08-19-2018 12:35:12,354","1140811,453756","600,0042",14,113,"3,5877947807312","1,49999809265137","0,249989122152329","0,00001858341","0,850595712661743","0,00003710376",,,"0,000173568725585938",,"36,2875673296735","34,7530403137207"
12718,"08-19-2018 15:18:15,488","1150594,659568","360,0031",14,114,"3,52641820907593","1,50000190734863","0,149995490908623","0,00001933611","0,494105577468872","0,00003860428",,,"0,000555992126464844",,"36,7684135437012","34,6273345947266"
12799,"08-19-2018 18:01:18,058","1160377,20902","120,001",14,115,"3,26282453536987","1,5000057220459","0,0499967113137245","0,00001991779","0,151827737689018","0,00003977203",,,"0,00214290618896484",,"38,01101","34,7081260681152"
12880,"08-19-2018 20:46:20,260","1170279,361112","2874,0105",17,115,"1,99973058700562","-3,00013256072998","2,39586591720581","2,394958","9,3297176361084","8,403981",,,"-0,000112428623930893",,"38,5233341716854","34,8053550720215"
12961,"08-19-2018 23:29:27,633","1180066,857788","2640,0042",17,116,"3,15394926071167","-3,00014495849609","2,39559674263001","2,19997","9,32871055603027","7,839216",,,"-0,00102043151855469",,"38,1602512767687","35,2655868530273"
13042,"08-20-2018 02:12:28,342","1189847,44086","2400,0018",17,117,"3,26927137374878","-3,00000953674316","2,39564609527588","1,999925","9,32898044586182","7,194774",,,"-0,000311851501464844",,"37,5847587585449","34,7288093566895"
13123,"08-20-2018 04:55:28,881","1199628,157004","2160,0014",17,118,"3,33317136764526","-2,99997901916504","2,39548373222351","1,799895","9,32825183868408","6,534003",,,"-0,000269889831542969",,"37,1653099060059","34,7491912841797"
13204,"08-20-2018 07:38:28,695","1209407,826072","1920,0025",17,119,"3,38996839523315","-2,99997615814209","2,39513778686523","1,599907","9,32691287994385","5,861593",,,"-0,000263214111328125",,"36,8801155090332","34,7491912841797"
13285,"08-20-2018 10:21:20,172","1219179,370476","1680,0055",17,120,"3,45340585708618","-3,00004100799561","2,39326310157776","1,399964","9,32110786437988","5,174304",,,"-0,000292778015136719",,"36,7727127807587","34,6032676696777"
13366,"08-20-2018 13:06:08,268","1229067,504308","1560,0055",17,121,"3,49270677566528","-3,0001392364502","2,39246821403503","1,300018","9,31777191162109","4,82725",,,"-0,000330924987792969",,"36,8936233520508","34,6361312866211"
13447,"08-20-2018 15:50:55,335","1238954,457992","1440,0053",17,122,"3,53366327285767","-3,0001392364502","2,39206862449646","1,200019","9,31604671478272","4,475908",,,"-0,000355720520019531",,"36,938793156582","34,6400299072266"
13528,"08-20-2018 18:37:40,680","1248959,835712","1440,0019",17,123,"3,53368902206421","-2,99994945526123","2,39202523231506","1,199952","9,3159875869751","4,475696",,,"-0,000329017639160156",,"36,8665657043457","34,7579231262207"
13609,"08-20-2018 21:22:25,006","1258844,300328","1320,0029",17,124,"3,57278966903687","-3,00018692016602","2,3916494846344","1,099967","9,31480026245117","4,120223",,,"-0,000345230102539063",,"36,8410224580921","34,7250823974609"
13690,"08-21-2018 00:05:08,770","1268607,976612","1080,002",17,125,"3,64045858383179","-3,00008296966553","2,39125657081604","0,8999879","9,31304168701172","3,398723",,,"-0,000278472900390625",,"37,1667098999023","35,1308364868164"
13771,"08-21-2018 02:47:51,866","1278370,998636","840,0022",17,126,"3,70142126083374","-3,00005722045898","2,39134097099304","0,699974","9,31363391876221","2,664502",,,"-0,000256538391113281",,"36,6129298434408","34,729736328125"
13852,"08-21-2018 05:32:09,063","1288228,309504","2280,0002",17,127,"3,09413957595825","-3,00003910064697","2,05369472503662","1,899922","7,89522075653076","6,667848",,,"-0,00156211853027344",,"37,7126380180152","34,6704788208008"
13933,"08-21-2018 08:14:09,180","1297948,4183","2400,0026",17,128,"3,2663779258728","-3,00005722045898","2,39209079742432","1,99991","9,31740093231201","7,189399",,,"-0,000323295593261719",,"37,425464630127","34,6873359680176"
14014,"08-21-2018 08:22:44,875","1298464,059092","47,0016",20,129,"3,04501676559448","1,50002861022949","0,0195798892527819","0,00003183521","0,0554682202637196","0,00006354136",,,"0,00512027740478516",,"38,4460497094831","34,7022987769732"
14095,"08-21-2018 08:32:56,034","1299075,217992","658,1605",20,129,"3,59748792648315","1,50004196166992","0,27421709895134","0,00003183521","0,937944293022156","0,00006354136",,,"0,000127792358398438",,"36,1512107849121","34,6782112121582"
14176,"08-21-2018 08:46:26,230","1299885,413792","1468,3563",20,129,"3,72977685928345","1,50004768371582","0,611780762672424","0,00003183521","2,17410492897034","0,00006354136",,,"0,000116348266601563",,"35,502338397881","34,7172508239746"
14257,"08-21-2018 08:59:56,429","1300695,613292","2278,5558",20,129,"3,82608366012573","1,50002479553223","0,949345052242279","0,00003183521","3,44859266281128","0,00006354136",,,"0,000159263610839844",,"35,6053653431607","34,7169521720897"
14338,"08-21-2018 09:13:26,673","1301505,856892","3088,7994",20,129,"3,95771741867065","1,50000381469727","1,28692543506622","0,00003183521","4,762619972229","0,00006354136",,,"0,000161170959472656",,"35,9525604248047","34,7169532775879"
14419,"08-21-2018 09:26:56,905","1302316,089092","3899,0316",20,129,"4,06375455856323","1,50002288818359","1,62451040744782","0,00003183521","6,11668539047241","0,00006354136",,,"0,000143051147460938",,"35,8400421142578","34,7738914489746"
14500,"08-21-2018 09:40:27,132","1303126,316592","4709,2591",20,129,"4,19667482376099","1,50000762939453","1,96208882331848","0,00003183521","7,51062631607056","0,00006354136",,,"0,000161170959472656",,"35,6655082702637","34,6268424987793"
14581,"08-21-2018 10:26:14,564","1305873,84368","322,6683",23,129,"3,97528886795044","-1,4998254776001","2,39117193222046","0,1344539","9,31296253204346","0,5367782",,,"-4,48226928710938E-05",,"34,7830583389385","34,7693786621094"
14662,"08-21-2018 10:39:44,768","1306684,04768","1132,8723",23,129,"3,90470170974731","-1,49987125396729","2,39117193222046","0,4719782","9,31296253204346","1,868923",,,"-0,000132560729980469",,"35,1287345886231","34,7595367431641"
14743,"08-21-2018 10:53:14,967","1307494,24718","1943,0718",23,129,"3,78233098983765","-1,49985504150391","2,39117193222046","0,8095099","9,31296253204346","3,165612",,,"-9,82284545898438E-05",,"35,248409313419","34,7907481680352"
14824,"08-21-2018 11:06:45,171","1308304,45068","2753,2753",23,129,"3,66869115829468","-1,49989032745361","2,39117193222046","1,147046","9,31296253204346","4,423767",,,"-0,000174522399902344",,"35,0815888384078","34,78111251394"
14905,"08-21-2018 11:20:15,372","1309114,65248","3563,4771",23,129,"3,54210138320923","-1,49991130828857","2,39117193222046","1,484601","9,31296253204346","5,64012",,,"-0,000144004821777344",,"34,9299050285094","34,7207145690918"
14986,"08-21-2018 11:33:45,585","1309924,86468","4373,6893",23,129,"3,44516134262085","-1,49993228912354","2,39117193222046","1,822149","9,31296253204346","6,819651",,,"-0,00019073486328125",,"35,2794343766457","34,8306110284709"
15067,"08-21-2018 11:47:15,782","1310735,06188","5183,8865",23,129,"3,30917882919312","-1,49990463256836","2,39117193222046","2,159692","9,31296253204346","7,960488",,,"-0,000309944152832031",,"35,6212615966797","34,7572479248047"
15148,"08-21-2018 11:56:01,056","1311260,33578","5709,1604",23,129,"2,59492540359497","-1,49988174438477","2,39117193222046","2,378524","9,31296253204346","8,63964",,,"-0,00716400146484375",,"35,97306","34,73946"
15229,"08-21-2018 12:06:57,287","1311916,4113","6,9332",20,130,"2,93955278396606","1,50001907348633","0,00288449716754258",0,"0,00837890990078449",0,,,"0,00972366333007813",,"35,3788811689181","34,7407937688361"
15310,"08-21-2018 12:15:38,640","1312437,7643","528,2862",20,130,"3,5819935798645","1,4999828338623","0,220105603337288",0,"0,752839148044586",0,,,"0,000123977661132813",,"35,0958137512207","34,7615699768066"
15391,"08-21-2018 12:29:08,823","1313247,9477","1338,4696",20,130,"3,71138429641724","1,50001335144043","0,557664096355438",0,"1,98256623744965",0,,,"0,000191688537597656",,"35,2203979492188","34,7872352600098"
15472,"08-21-2018 12:42:39,014","1314058,1387","2148,6606",20,130,"3,80667924880981","1,4999885559082","0,895225942134857",0,"3,25180983543396",0,,,"0,00016021728515625",,"35,5079574584961","34,8677444458008"
15553,"08-21-2018 12:56:09,223","1314868,3475","2958,8694",20,130,"3,93662786483765","1,50002479553223","1,2327938079834",0,"4,55816888809204",0,,,"0,000182151794433594",,"35,934032090885","34,8126258850098"
15634,"08-21-2018 13:09:39,418","1315678,5428","3769,0647",20,130,"4,044517993927","1,50003242492676","1,57036423683167",0,"5,90587329864502",0,,,"7,72476196289063E-05",,"35,8758011148376","34,7711259713646"
15715,"08-21-2018 13:23:09,625","1316488,7494","4579,2713",20,130,"4,17407178878784","1,50004386901855","1,9079304933548",0,"7,29183912277222",0,,,"0,000163078308105469",,"35,6635856628418","34,7823104858398"
15796,"08-21-2018 14:09:01,932","1319241,115324","182,7081",23,130,"3,9862904548645","-1,49996089935303","2,39879965782166","0,07611118","9,35281467437744","0,3045636",,,"-0,000101089477539063",,"34,8345108032227","34,7999382019043"
15877,"08-21-2018 14:22:32,158","1320051,341724","992,9345",23,130,"3,92338800430298","-1,49994277954102","2,39879965782166","0,4136675","9,35281467437744","1,64054",,,"-4,76837158203125E-05",,"35,1518974304199","34,7969360351563"
15958,"08-21-2018 14:36:02,361","1320861,545124","1803,1379",23,130,"3,8006911277771","-1,49990272521973","2,39879965782166","0,7512156","9,35281467437744","2,944272",,,"-0,000154495239257813",,"35,2542839050293","34,755241394043"
16039,"08-21-2018 14:49:32,564","1321671,747824","2613,3406",23,130,"3,68959760665894","-1,49986362457275","2,39879965782166","1,088751","9,35281467437744","4,208749",,,"-0,000176429748535156",,"35,1553802490234","34,8373031616211"
16120,"08-21-2018 15:03:02,775","1322481,958424","3423,5512",23,130,"3,56065988540649","-1,49989223480225","2,39879965782166","1,4263","9,35281467437744","5,432295",,,"-0,000120162963867188",,"34,9316515559334","34,8156622228681"
16201,"08-21-2018 15:16:32,962","1323292,145924","4233,7387",23,130,"3,46374368667603","-1,49992942810059","2,39879965782166","1,763836","9,35281467437744","6,617219",,,"-0,000147819519042969",,"35,1687167127286","34,8598334264243"
16282,"08-21-2018 15:30:03,185","1324102,368824","5043,9616",23,130,"3,33927297592163","-1,49986743927002","2,39879965782166","2,101388","9,35281467437744","7,765417",,,"-0,000202178955078125",,"35,5375938415527","34,8066329956055"
16363,"08-21-2018 15:40:47,423","1324746,607224","5688,2",23,130,"2,73479700088501","-1,49990272521973","2,39879965782166","2,369789","9,35281467437744","8,6152",,,"-0,00550460815429688",,"36,089496102319","34,8417427701671"
16444,"08-21-2018 15:48:58,960","1325238,10782","420,0038",24,130,"2,71302080154419",0,"2,39879965782166","2,399566","9,35281467437744","8,688286",,,"0,000314712524414063",,"35,6832847595215","34,8045310974121"
16525,"08-21-2018 15:58:22,463","1325801,674108","383,3914",20,131,"3,54984045028687","1,50002861022949","0,159732788801193",0,"0,53712922334671",0,,,"0,000397682189941406",,"35,0239756941209","34,8421008457707"
16606,"08-21-2018 16:11:52,694","1326611,905508","1193,6228",20,131,"3,68532991409302","1,50002670288086","0,497312903404236",0,"1,75900280475616",0,,,"0,000234603881835938",,"35,296012878418","34,8530960083008"
16687,"08-21-2018 16:25:22,941","1327422,152108","2003,8694",20,131,"3,78783750534058","1,50003623962402","0,834903538227081",0,"3,02228188514709",0,,,"0,000115394592285156",,"35,473274230957","34,7954444885254"
16768,"08-21-2018 16:38:53,158","1328232,369908","2814,0872",20,131,"3,91250944137573","1,49999809265137","1,17248094081879",0,"4,32077789306641",0,,,"0,000181198120117188",,"35,9509735107422","34,7946891784668"
16849,"08-21-2018 16:52:23,348","1329042,559108","3624,2764",20,131,"4,02562189102173","1,50000762939453","1,51004159450531",0,"5,6616063117981",0,,,"0,000105857849121094",,"35,9623641967773","34,7068099975586"
16930,"08-21-2018 17:05:53,534","1329852,745608","4434,4629",20,131,"4,14819574356079","1,50002479553223","1,84760427474976",0,"7,03974056243897",0,,,"0,000192642211914063",,"35,6979179382324","34,7984924316406"
17011,"08-21-2018 17:51:55,187","1332614,375048","43,4933",23,131,"4,00954675674439","-1,49991321563721","2,40017676353455","0,01811988","9,35747051239014","0,0728209",,,"-0,00032806396484375",,"34,6635932922363","34,8244132995606"
17092,"08-21-2018 18:05:25,372","1333424,560848","853,6791",23,131,"3,9390139579773","-1,49987602233887","2,40017676353455","0,3556534","9,35747051239014","1,4124",,,"-0,000121116638183594",,"34,9896737331036","34,7053604125977"
17173,"08-21-2018 18:18:55,610","1334234,798048","1663,9163",23,131,"3,82054853439331","-1,49994850158691","2,40017676353455","0,6932194","9,35747051239014","2,723175",,,"-0,000158309936523438",,"35,1436542138553","34,5914809471283"
17254,"08-21-2018 18:32:25,815","1335045,004048","2474,1223",23,131,"3,71003866195679","-1,49997520446777","2,40017676353455","1,030773","9,35747051239014","3,994122",,,"-0,000148773193359375",,"35,1546742653396","34,7033386230469"
17335,"08-21-2018 18:45:56,021","1335855,209748","3284,328",23,131,"3,58150339126587","-1,50002098083496","2,40017676353455","1,36833","9,35747051239014","5,225155",,,"-0,00018310546875",,"34,8661730673642","34,7142940987504"
17416,"08-21-2018 18:59:26,229","1336665,417348","4094,5356",23,131,"3,48020887374878","-1,49997138977051","2,40017676353455","1,705896","9,35747051239014","6,415918",,,"-0,000150680541992188",,"35,0385704040527","34,6560668945313"
17497,"08-21-2018 19:12:56,445","1337475,633248","4904,7515",23,131,"3,36145067214966","-1,49999237060547","2,40017676353455","2,043466","9,35747051239014","7,57126",,,"-0,000136375427246094",,"35,4782524108887","34,718318939209"
17578,"08-21-2018 19:25:21,063","1338220,251948","5649,3702",23,131,"2,8754506111145","-1,49995517730713","2,40017676353455","2,353701","9,35747051239014","8,570173",,,"-0,00253677368164063",,"36,0633850097656","34,7832794189453"
17659,"08-21-2018 19:27:08,693","1338327,881748",5757,23,131,"2,06226205825806","-1,49997806549072","2,40017676353455","2,39854107744552","9,35747051239014","8,68690800037732",,,"-0,0198836334245788",,"36,3209294501215","34,86104"
17740,"08-21-2018 19:38:12,381","1338991,551064","60,0073",27,132,"2,76810693740845",0,0,0,0,0,,,"0,000163078308105469",,"35,42124","34,8607177734375"