File: DA/DA-BATTERY_ARCHIVE-180824_NMC_2_Grp_5_35C_6_6.csv
Data_Point,Date_Time,Test_Time(s),Step_Time(s),Step_Index,Cycle_Index,Voltage(V),Current(A),Charge_Capacity(Ah),Discharge_Capacity(Ah),Charge_Energy(Wh),Discharge_Energy(Wh),ACR(Ohm),Internal Resistance(Ohm),dV/dt(V/s),dI/dt(A/s),Aux_Temperature_1,Aux_Temperature_2
1,"08-24-2018 10:22:01,942","10,0023","10,0023",1,1,"3,14712476730347",0,0,0,0,0,,,"-1,62124633789063E-05",,"34,572078704834","34,6911392211914"
82,"08-24-2018 10:33:48,416","716,4765","656,3751",2,1,"3,61426782608032","1,50006103515625","0,273473143577576",0,"0,964683473110199",0,,,"0,000191688537597656",,"34,9372253417969","34,7911529541016"
163,"08-24-2018 10:47:18,653","1526,7129","1466,6115",2,1,"3,73944234848022","1,50004386901855","0,611063301563263",0,"2,2062554359436",0,,,"0,000128746032714844",,"35,172794342041","34,7255897521973"
244,"08-24-2018 11:00:48,868","2336,9281","2276,8267",2,1,"3,83267068862915","1,50003814697266","0,948639810085297",0,"3,48300528526306",0,,,"0,000113487243652344",,"35,5886001586914","34,6862640380859"
325,"08-24-2018 11:14:19,078","3147,1382","3087,0368",2,1,"3,9619288444519","1,50001907348633","1,2862104177475",0,"4,79896593093872",0,,,"0,0001983642578125",,"35,8879776000977","34,7216262817383"
406,"08-24-2018 11:27:49,276","3957,3362","3897,2348",2,1,"4,06651830673218","1,50005149841309","1,62378323078156",0,"6,15407609939575",0,,,"0,00014495849609375",,"35,6745758056641","34,619815826416"
487,"08-24-2018 11:41:19,503","4767,5633","4707,4619",2,1,"4,19794130325317","1,50003433227539","1,96136724948883",0,"7,54879426956177",0,,,"0,000145912170410156",,"35,6356734709689","34,6746864318848"
568,"08-24-2018 12:27:08,194","7516,253864","333,5485",5,1,"3,97373056411743","-1,50015449523926","2,39202785491943","0,1389747","9,35776805877686","0,5546501",,,"-4,76837158203125E-06",,"34,8066520690918","34,6387138366699"
649,"08-24-2018 12:40:38,391","8326,450964","1143,7456",5,1,"3,90144014358521","-1,49984455108643","2,39202785491943","0,4765352","9,35776805877686","1,886232",,,"-0,000147819519042969",,"35,1446266174316","34,6646347045898"
730,"08-24-2018 12:54:08,601","9136,661564","1953,9562",5,1,"3,77973127365112","-1,49986743927002","2,39202785491943","0,8140679","9,35776805877686","3,181883",,,"-0,000107765197753906",,"35,2073897831133","34,696964263916"
811,"08-24-2018 13:07:38,802","9946,862564","2764,1572",5,1,"3,6652512550354","-1,49985122680664","2,39202785491943","1,151604","9,35776805877686","4,43905",,,"-0,000151634216308594",,"34,9551582336426","34,5579071044922"
892,"08-24-2018 13:21:08,985","10757,045664","3574,3403",5,1,"3,53949594497681","-1,49984455108643","2,39202785491943","1,489128","9,35776805877686","5,654188",,,"-0,000171661376953125",,"34,8209609985352","34,7086143493652"
973,"08-24-2018 13:34:39,181","11567,241564","4384,5362",5,1,"3,44468545913696","-1,4998836517334","2,39202785491943","1,826662","9,35776805877686","6,83312",,,"-0,000105857849121094",,"35,1808471679688","34,5851402282715"
1054,"08-24-2018 13:48:09,379","12377,439364","5194,734",5,1,"3,31201410293579","-1,49986553192139","2,39202785491943","2,164192","9,35776805877686","7,973766",,,"-0,000296592712402344",,"35,4101753324377","34,6339111328125"
1135,"08-24-2018 13:57:14,898","12922,958764","5740,2534",5,1,"2,61245012283325","-1,49991512298584","2,39202785491943","2,391464","9,35776805877686","8,680526",,,"-0,00686073303222656",,"36,0537305831299","34,616652052725"
1216,"08-24-2018 14:08:12,411","13580,470888","5,7518",2,2,"2,91767168045044","1,50002861022949","0,00239437585696578",0,"0,00691440235823393",0,,,"0,0100231170654297",,"35,2909888269399","34,6686692851578"
1297,"08-24-2018 14:16:36,403","14084,462788","509,7437",2,2,"3,5767674446106","1,50002861022949","0,212381571531296",0,"0,724400997161865",0,,,"0,000158309936523438",,"34,9752426147461","34,6204490661621"
1378,"08-24-2018 14:30:06,602","14894,661888","1319,9428",2,2,"3,7058253288269","1,50003051757813","0,549953877925873",0,"1,95233726501465",0,,,"0,000163078308105469",,"35,1541137695313","34,6567192077637"
1459,"08-24-2018 14:43:36,786","15704,846088","2130,127",2,2,"3,7998309135437","1,50004196166992","0,887514054775238",0,"3,21977686882019",0,,,"0,000102043151855469",,"35,3545532226563","34,6402320861816"
1540,"08-24-2018 14:57:06,997","16515,057488","2940,3384",2,2,"3,92799425125122","1,50004577636719","1,2250964641571",0,"4,52330541610718",0,,,"0,000179290771484375",,"35,8850901749783","34,7295913696289"
1621,"08-24-2018 15:10:37,232","17325,292488","3750,5734",2,2,"4,03733682632446","1,50003814697266","1,56268358230591",0,"5,86855554580689",0,,,"0,000111579895019531",,"35,9407691955566","34,7164421081543"
1702,"08-24-2018 15:24:07,426","18135,486088","4560,767",2,2,"4,16399621963501","1,50003623962402","1,90024888515472",0,"7,25142097473145",0,,,"0,000186920166015625",,"35,5939636230469","34,5950965881348"
1783,"08-24-2018 16:10:07,870","20895,931008","133,3156",5,2,"3,99153470993042","-1,49988842010498","2,41611480712891","0,05553656","9,41662883758545","0,2224414",,,"-0,000141143798828125",,"34,6480944451111","34,5722429778048"
1864,"08-24-2018 16:23:38,105","21706,166508","943,5511",5,2,"3,92842054367065","-1,49987411499023","2,41611480712891","0,3930905","9,41662883758545","1,559471",,,"-0,000111579895019531",,"34,9943428039551","34,6432876586914"
1945,"08-24-2018 16:37:08,324","22516,385508","1753,7701",5,2,"3,80697679519653","-1,49992752075195","2,41611480712891","0,730637","9,41662883758545","2,865398",,,"-0,000141143798828125",,"35,0862464904785","34,5685920715332"
2026,"08-24-2018 16:50:38,528","23326,589408","2563,974",5,2,"3,69626951217651","-1,49987125396729","2,41611480712891","1,068173","9,41662883758545","4,131978",,,"-0,00012969970703125",,"35,0016784667969","34,5878028869629"
2107,"08-24-2018 17:04:08,727","24136,788808","3374,1734",5,2,"3,56738519668579","-1,49985885620117","2,41611480712891","1,405702","9,41662883758545","5,357877",,,"-0,00014495849609375",,"34,6212123804882","34,5943064118804"
2188,"08-24-2018 17:17:38,941","24947,002208","4184,3868",5,2,"3,4705548286438","-1,4998836517334","2,41611480712891","1,743239","9,41662883758545","6,544781",,,"-8,67843627929688E-05",,"34,9391136169434","34,5900802612305"
2269,"08-24-2018 17:31:09,167","25757,228908","4994,6135",5,2,"3,34921312332153","-1,49990653991699","2,41611480712891","2,08079","9,41662883758545","7,696032",,,"-0,000168800354003906",,"35,4304656982422","34,5410423278809"
2350,"08-24-2018 17:42:53,193","26461,254108","5698,6387",5,2,"2,80941915512085","-1,49993801116943","2,41611480712891","2,374099","9,41662883758545","8,632555",,,"-0,00345230102539063",,"35,9780006408691","34,5435371398926"
2431,"08-24-2018 17:44:21,754","26549,815408","5787,2",5,2,"1,99986886978149","-1,49992370605469","2,41611480712891","2,410995","9,41662883758545","8,725536",,,"-0,0183702467912919",,"36,1846154337051","34,5303787750348"
2512,"08-24-2018 17:59:33,363","27461,42194","311,4344",2,3,"3,51289796829224","1,50004196166992","0,129759430885315",0,"0,430954098701477",0,,,"0,000654220581054688",,"34,8742942810059","34,6623001098633"
2593,"08-24-2018 18:13:03,607","28271,66694","1121,6794",2,3,"3,67079973220825","1,50007247924805","0,467356264591217",0,"1,64797329902649",0,,,"0,000188827514648438",,"35,133186340332","34,6401023864746"
2674,"08-24-2018 18:26:33,837","29081,89604","1931,9085",2,3,"3,77693796157837","1,50004577636719","0,80494636297226",0,"2,90748834609985",0,,,"8,7738037109375E-05",,"35,3601491080543","34,7311019897461"
2755,"08-24-2018 18:40:04,029","29892,08854","2742,101",2,3,"3,89608812332153","1,50008010864258","1,14251804351807",0,"4,20105838775635",0,,,"0,00018310546875",,"35,8491592407227","34,8015747070313"
2836,"08-24-2018 18:53:34,213","30702,27204","3552,2845",2,3,"4,01323366165161","1,50002861022949","1,48008549213409",0,"5,53721427917481",0,,,"0,000145912170410156",,"35,9618186950684","34,85400390625"
2917,"08-24-2018 19:07:04,447","31512,50624","4362,5187",2,3,"4,13036680221558","1,50003051757813","1,81766951084137",0,"6,91047286987305",0,,,"0,000184059143066406",,"35,7010383605957","34,7461585998535"
2998,"08-24-2018 19:52:01,976","34210,035516","480,0042",4,3,"4,15587186813355",0,"2,41256332397461",0,"9,40340900421143",0,,,0,,"35,0268135070801","34,7631568908691"
3079,"08-24-2018 20:06:25,515","35073,57658","743,4445",5,3,"3,94857549667358","-1,49983882904053","2,41256332397461","0,3097242","9,40340900421143","1,231166",,,"-5,53131103515625E-05",,"35,4615707397461","35,1610946655273"
3160,"08-24-2018 20:19:55,732","35883,79378","1553,6617",5,3,"3,83684682846069","-1,49984264373779","2,41256332397461","0,6472543","9,40340900421143","2,546911",,,"-0,000159263610839844",,"35,0729141235352","34,6506156921387"
3241,"08-24-2018 20:33:25,924","36693,98588","2363,8538",5,3,"3,72530126571655","-1,49983882904053","2,41256332397461","0,9847832","9,40340900421143","3,822763",,,"-0,000186920166015625",,"35,2086871875678","34,7526089257856"
3322,"08-24-2018 20:46:56,128","37504,18998","3174,0579",5,3,"3,59870576858521","-1,49990272521973","2,41256332397461","1,322324","9,40340900421143","5,059461",,,"-0,000154495239257813",,"34,9483451843262","34,6991119384766"
3403,"08-24-2018 21:00:26,335","38314,39668","3984,2646",5,3,"3,4926552772522","-1,49992942810059","2,41256332397461","1,659878","9,40340900421143","6,254921",,,"-0,000124931335449219",,"34,9831657409668","34,6696166992188"
3484,"08-24-2018 21:13:56,527","39124,58858","4794,4565",5,3,"3,37751340866089","-1,49997138977051","2,41256332397461","1,997428","9,40340900421143","7,415985",,,"-0,000100135803222656",,"35,4729078102566","34,7380523681641"
3565,"08-24-2018 21:27:19,410","39927,47138","5597,3393",5,3,"3,00684118270874","-1,50000286102295","2,41256332397461","2,331942","9,40340900421143","8,509222",,,"-0,00131320953369141",,"36,0399740375455","34,8369187993577"
3646,"08-24-2018 21:30:15,718","40103,78008","5773,648",5,3,"2,1948733329773","-1,49995708465576","2,41256332397461","2,40540029068887","9,40340900421143","8,71257633658214",,,"-0,0192625285277847",,"36,2664282560293","34,7920015524787"
3727,"08-24-2018 23:16:03,396","46451,457452","960,0038",10,4,"4,20050191879273","0,794157028198242","2,28576374053955",0,"8,87116813659668",0,,,"-2,86102294921875E-06",,"35,328800201416","34,7126045227051"
3808,"08-25-2018 02:07:18,243","56726,30276","600,0029",15,4,"4,20050287246704","1,02498435974121","4,59591484069824","2,400223","17,8524341583252","8,411958",,,"1,43051147460938E-05",,"35,4851570427735","34,6646461486816"
3889,"08-25-2018 04:50:32,012","66520,074256","360,0039",15,5,"4,20050382614136","1,17178916931152","2,11179518699646","0,00002408737","8,13525104522705","0,00004808783",,,"2,86102294921875E-06",,"35,4823913574219","34,6442451477051"
3970,"08-25-2018 07:33:37,102","76305,159532","120,0022",15,6,"4,20050191879273","1,34695434570313","2,02559161186218","0,00002208382","7,77419900894165","0,00004408875",,,"-2,86102294921875E-05",,"35,6678771972656","34,7539901733398"
4051,"08-25-2018 10:17:32,186","86140,241684","4680,0017",14,7,"4,19065427780151","1,50010108947754","1,94993114471436","0,00002083723","7,45725679397583","0,00004159285",,,"0,000108718872070313",,"35,9775695800781","34,8661155700684"
4132,"08-25-2018 13:00:32,050","95920,116452","4440,0035",14,8,"4,15034437179565","1,50002479553223","1,84994089603424","0,0000221664","7,04057312011719","0,00004425797",,,"0,000208854675292969",,"35,6227645874023","34,7608032226563"
4213,"08-25-2018 15:45:29,710","105817,770088","4320,0045",14,9,"4,12951421737671","1,50007057189941","1,79995012283325","0,000023332","6,83386039733887","0,00004658184",,,"0,000184059143066406",,"35,7316665649414","34,7386131286621"
4294,"08-25-2018 18:28:22,514","115590,57046","4080,0018",14,10,"4,08946561813355","1,50004196166992","1,6999603509903","0,0000262512","6,4233922958374","0,00005240276",,,"0,000147819519042969",,"36,1460609275786","35,1365051269531"
4375,"08-25-2018 21:11:14,034","125362,09438","3840,0006",14,11,"4,05491876602173","1,50006866455078","1,59993612766266","0,00001991717","6,01619625091553","0,00003976557",,,"0,000173568725585938",,"35,79736328125","34,7056350708008"
4456,"08-25-2018 23:54:01,105","135129,170944","3600,0003",14,12,"4,02411699295044","1,50005531311035","1,49994218349457","0,00001616708","5,61266994476318","0,00003227808",,,"0,000143051147460938",,"35,8928260803223","34,6698875427246"
4537,"08-26-2018 02:35:39,327","144827,395312","840,0031",15,13,"4,20049238204956","0,871196746826172","2,2410192489624","0,00002425096","8,68236255645752","0,00004840879",,,"8,58306884765625E-06",,"35,2714691162109","34,7471504211426"
4618,"08-26-2018 05:18:24,086","154592,134456","600,0002",15,14,"4,20037698745728","1,02218818664551","2,17673444747925","0,00001933355","8,41182041168213","0,00003859652",,,"-3,814697265625E-06",,"35,5384902954102","34,793399810791"
4699,"08-26-2018 08:01:08,239","164356,30416","360,0011",15,15,"4,20047426223755","1,17364501953125","2,10392308235168","0,00002124905","8,10612201690674","0,00004241978",,,"-7,62939453125E-06",,"36,2092781066895","35,2602119445801"
4780,"08-26-2018 10:43:51,483","174119,55706","120,0028",15,16,"4,20042943954468","1,34744071960449","2,01965618133545","0,00002416683","7,75231266021729","0,00004824765",,,"5,7220458984375E-06",,"35,800163310602","34,9260063171387"
4861,"08-26-2018 13:27:39,668","183947,731556","4680,0003",14,17,"4,19255971908569","1,5000057220459","1,9498872756958","0,00002016349","7,45942354202271","0,00004025776",,,"0,00020599365234375",,"35,7910919189453","34,906379699707"
4942,"08-26-2018 16:10:19,713","193707,772592","4440,0015",14,18,"4,15274000167847","1,50003051757813","1,84991443157196","0,00002016769","7,04254961013794","0,00004026919",,,"0,000193595886230469",,"35,6984825134277","34,8538284301758"
5023,"08-26-2018 18:54:57,358","203585,422364","4320,0033",14,19,"4,13139963150024","1,50003623962402","1,79992949962616","0,00002550168","6,83551073074341","0,0000509133",,,"0,000207901000976563",,"35,7115364074707","34,8209915161133"
5104,"08-26-2018 21:37:34,200","213342,26482","4080,0008",14,20,"4,09094572067261","1,50002098083496","1,69994580745697","0,00002133406","6,42479133605957","0,00004259068",,,"0,000158309936523438",,"35,7840347290039","34,9356079101563"
5185,"08-27-2018 00:20:09,978","223098,029032","3840,0013",14,21,"4,05608510971069","1,50005149841309","1,59991919994354","0,000017999","6,01747560501099","0,00003593025",,,"0,000121116638183594",,"35,8469658331112","34,8203620910645"
5266,"08-27-2018 03:02:43,340","232851,40028","3600,001",14,22,"4,02489995956421","1,50003051757813","1,49990689754486","0,00001558256","5,61339855194092","0,0000311121",,,"0,000120162963867188",,"36,0318298339844","34,850284576416"
5347,"08-27-2018 05:45:17,385","242605,443172","3360,0005",14,23,"3,99463891983032","1,50002479553223","1,39993321895599","0,00001558345","5,21268796920776","0,00003111637",,,"0,000117301940917969",,"36,1014671322632","34,7594451904297"
5428,"08-27-2018 08:27:31,293","252339,352028","3120,0019",14,24,"3,96381139755249","1,49999046325684","1,29987704753876","0,00002016565","4,8161563873291","0,00004026658",,,"0,000112533569335938",,"35,9887809693083","34,8088226318359"
5509,"08-27-2018 11:09:50,978","262079,027052","2880,0021",14,25,"3,92746114730835","1,50006675720215","1,19989252090454","0,00002283465","4,42144155502319","0,00004559699",,,"0,0001678466796875",,"35,9182624816895","34,774097442627"
5590,"08-27-2018 13:52:11,575","271819,61868","2640,0017",14,26,"3,88691663742065","1,50004959106445","1,09989511966705","0,00002758221","4,03065967559814","0,00005507263",,,"0,000237464904785156",,"35,8596954345703","34,7722549438477"
5671,"08-27-2018 16:34:32,952","281561,013324","2400,0013",14,27,"3,84656381607056","1,50000953674316","0,999897837638855","0,00001966753","3,64397358894348","0,0000392711",,,"0,000180244445800781",,"35,8058280944824","34,7347755432129"
5752,"08-27-2018 19:16:53,631","291301,686172","2160,0002",14,28,"3,81044244766235","1,50005912780762","0,899921178817749","0,00002600014","3,26119446754456","0,00005191058",,,"0,000115394592285156",,"35,7046546936035","34,8625679016113"
5833,"08-27-2018 21:59:15,317","301043,377428","1920,0015",14,29,"3,7802300453186","1,50003433227539","0,799912810325623","0,00002333147","2,88160467147827","0,00004657967",,,"0,000158309936523438",,"35,4397697478835","34,754940032959"
5914,"08-28-2018 00:41:35,213","310783,299612","1680,0034",14,30,"3,7548680305481","1,50005722045898","0,69993931055069","0,00002199998","2,505051612854","0,00004392664",,,"0,000101089477539063",,"35,5070190429688","34,7027015686035"
5995,"08-28-2018 03:23:55,610","320523,64308","1440,0004",14,31,"3,72718191146851","1,50005912780762","0,599935591220856","0,00002200013","2,130774974823","0,00004393357",,,"0,000179290771484375",,"35,7591743469238","34,9603042602539"
6076,"08-28-2018 06:06:15,659","330263,727004","1200,0001",14,32,"3,68701887130737","1,50003433227539","0,499949395656586","0,00002216696","1,76000154018402","0,00004426313",,,"0,00020599365234375",,"35,8885537771695","35,0072822570801"
6157,"08-28-2018 08:48:31,312","339999,387948","960,0005",14,33,"3,64311361312866","1,50005912780762","0,399962991476059","0,00001808394","1,39368808269501","0,00003610559",,,"0,000201225280761719",,"36,1532897949219","34,9110107421875"
6238,"08-28-2018 11:32:45,887","349853,93528","840,0015",14,34,"3,62505292892456","1,50005340576172","0,349960148334503","0,00002033179","1,21198177337646","0,00004059483",,,"0,000173568725585938",,"36,1536293029785","34,8478202819824"
6319,"08-28-2018 14:14:59,476","359587,53194","600,0019",14,35,"3,59034013748169","1,50004196166992","0,249978289008141","0,00002024799","0,851281344890595","0,0000404339",,,"0,000187873840332031",,"36,3506283338244","34,8551826477051"
6400,"08-28-2018 16:57:12,326","369320,373936","360,0015",14,36,"3,53012990951538","1,50001335144043","0,149984359741211","0,00001908273","0,49450695514679","0,00003810057",,,"0,000581741333007813",,"36,8439907449662","34,8478202819824"
6481,"08-28-2018 19:39:23,736","379051,77434","120,0012",14,37,"3,26580762863159","1,50001525878906","0,0499942786991596","0,00002675178","0,151948258280754","0,00005341617",,,"0,00211715698242188",,"38,00246","34,7956352233887"
6562,"08-28-2018 22:23:34,860","388902,89558","2857,8449",17,37,"1,99976587295532","-3,00000190734863","2,38226342201233","2,381246","9,27973461151123","8,346839",,,"-0,000423941583211105",,"38,5531192334658","34,7595558166504"
6643,"08-29-2018 01:06:08,858","398656,911236","2640,0012",17,38,"3,13775777816772","-3,00008296966553","2,38236784934998","2,199803","9,28022766113281","7,824692",,,"-0,00116062164306641",,"37,9159428197489","34,8796577453613"
6724,"08-29-2018 03:48:20,296","408388,345208","2400,0016",17,39,"3,26244592666626","-2,99995803833008","2,38192915916443","1,999727","9,2783088684082","7,181902",,,"-0,000370979309082031",,"37,6670302136165","34,8985328674316"
6805,"08-29-2018 06:30:30,661","418118,729004","2160,0005",17,40,"3,32714605331421","-2,99993705749512","2,38172650337219","1,799762","9,2775468826294","6,52308",,,"-0,000267982482910156",,"37,210319519043","34,8944625854492"
6886,"08-29-2018 09:14:39,711","427967,770512","2040,0007",17,41,"3,35607004165649","-2,99986267089844","2,38145279884338","1,699817","9,27646255493164","6,189291",,,"-0,000288963317871094",,"37,1124228749088","34,9301795959473"
6967,"08-29-2018 11:56:49,645","437697,699756","1800,0038",17,42,"3,41488695144653","-2,99989318847656","2,38161873817444","1,499849","9,27717208862305","5,512356",,,"-0,000301361083984375",,"37,0907669067383","34,8572769165039"
7048,"08-29-2018 14:38:58,571","447426,63986","1560,0007",17,43,"3,48860692977905","-2,99997425079346","2,38118672370911","1,299903","9,27546882629395","4,822573",,,"-0,0003814697265625",,"37,0572090148926","34,8685760498047"
7129,"08-29-2018 17:21:05,889","457153,946664","1320,0029",17,44,"3,56921911239624","-2,99995613098145","2,3808798789978","1,099922","9,27423858642578","4,116678",,,"-0,000307083129882813",,"36,9850921630859","34,7796096801758"
7210,"08-29-2018 20:03:11,091","466879,153416","1080,0022",17,45,"3,63737154006958","-2,99992656707764","2,37994289398193","0,8999194","9,27053165435791","3,395516",,,"-0,000260353088378906",,"36,7693633100959","34,8153648376465"
7291,"08-29-2018 22:45:16,421","476604,458372","840,0012",17,46,"3,69840860366821","-3,00005722045898","2,38007640838623","0,6999561","9,271071434021","2,662217",,,"-0,000242233276367188",,"36,7770500183106","34,7946586608887"
7372,"08-30-2018 01:27:20,615","486328,684084","600,0023",17,47,"3,76773309707642","-2,99997043609619","2,38007092475891","0,4999701","9,2711820602417","1,915836",,,"-0,000225067138671875",,"36,6748771667481","34,8869132995606"
7453,"08-30-2018 04:09:25,368","496053,432384","360,0019",17,48,"3,8256573677063","-2,99987506866455","2,37985038757324","0,2999742","9,27012825012207","1,156108",,,"-0,000177383422851563",,"36,0410496590429","34,939022064209"
7534,"08-30-2018 06:53:28,935","505897,001136","240,0015",17,49,"3,84423303604126","-2,99985790252686","2,37963032722473","0,1999941","9,26938629150391","0,7726263",,,"-0,000168800354003906",,"35,6760482788086","34,7579498291016"
7615,"08-30-2018 09:35:31,272","515619,320556","600,0118",16,50,"4,15439462661743",0,"2,37916970252991","0,0000198315","9,26749801635742","0,00003959282",,,"1,33385765891626E-05",,"34,9053026668223","34,8674796331167"
7696,"08-30-2018 12:11:32,838","524980,906252","1800,0062",15,51,"4,20035696029663","0,317092895507813","2,37891745567322","0,00001991404","9,26655292510986","0,000039763",,,"4,57762133425563E-05",,"35,0733979111793","34,7889938354492"
7777,"08-30-2018 14:55:33,553","534821,618388","1680,0001",15,52,"4,20046281814575","0,366510391235352","2,36745190620422","0,00002433425","9,2185640335083","0,00004857846",,,"-3,24249267578125E-05",,"35,1530915734244","34,8613624572754"
7858,"08-30-2018 17:37:33,256","544541,323216","1440,0023",15,53,"4,20051908493042","0,485574722290039","2,33873820304871","0,00001274918","9,09804630279541","0,0000254517",,,"3,814697265625E-06",,"35,2046623229981","34,8100814819336"
7939,"08-30-2018 20:21:31,005","554379,092632","1320,0025",15,54,"4,20049142837524","0,553869247436523","2,32123947143555","0,00001866502","9,0247745513916","0,0000372624",,,"2,19345092773438E-05",,"35,2293663024902","34,7640037536621"
8020,"08-30-2018 23:03:29,537","564097,614212","1080,0012",15,55,"4,20045328140259","0,704317092895508","2,27923703193665","0,0000199991","8,84836292266846","0,00003993599",,,"-4,10079956054688E-05",,"35,256462097168","34,7468986511231"
8101,"08-31-2018 01:47:26,401","573934,436656","960,0047",15,56,"4,20037603378296","0,784017562866211","2,25356769561768","0,00001958158","8,74056529998779","0,00003909978",,,"2,6702880859375E-05",,"35,5248603820801","34,8642082214356"
8182,"08-31-2018 04:29:22,322","583650,399932","720,001",15,57,"4,20037984848023","0,941486358642578","2,19607138633728","0,00002041428","8,49904918670654","0,00004075691",,,"-3,14712524414063E-05",,"35,5997047424316","34,8833198547363"
8263,"08-31-2018 07:11:18,020","593366,041228","480,003",15,58,"4,20044183731079","1,09365463256836","2,12823724746704","0,00001524918","8,21429347991943","0,0000304443",,,"-3,52859497070313E-05",,"35,6952248399484","34,8427734375"
8344,"08-31-2018 09:53:12,655","603080,694584","240,0001",15,59,"4,20049810409546","1,24860572814941","2,04986429214478","0,00002025058","7,88519668579102","0,00004042763",,,"-6,67572021484375E-06",,"35,6449356079102","34,6640129089356"
8425,"08-31-2018 12:35:05,305","612793,413056","4701,5155",14,60,"4,20000696182251","1,50001335144043","1,95883584022522","0,00002016667","7,50308132171631","0,00004025846",,,"0,000127113847672157",,"35,6523666381836","34,6405487060547"
8506,"08-31-2018 15:18:35,824","622603,867736","4560,0008",14,61,"4,17858266830444","1,50002479553223","1,89986896514893","0,00002083322","7,25615310668945","0,00004159091",,,"0,000210762023925781",,"35,6693954467773","34,8082542419434"
8587,"08-31-2018 18:02:26,260","632434,329888","4440,001",14,62,"4,15803003311157","1,50001907348633","1,8498717546463","0,00002466376","7,0479416847229","0,00004923994",,,"0,000159263610839844",,"35,6053810272567","34,6022033691406"
8668,"08-31-2018 20:44:14,586","642142,628752","4200,0007",14,63,"4,11551809310913","1,5000114440918","1,74988436698914","0,00002141664","6,63437652587891","0,00004275521",,,"0,000195503234863281",,"35,7093620300293","34,7393989562988"
8749,"08-31-2018 23:28:02,877","651970,930016","4080,0027",14,64,"4,09539747238159","1,50002098083496","1,69991660118103","0,00001741651","6,42924547195435","0,00003477287",,,"0,000164985656738281",,"35,7694053649902","34,805233001709"
8830,"09-01-2018 02:09:52,327","661680,409928","3840,0037",14,65,"4,0596194267273","1,50004196166992","1,59991300106049","0,00001941546","6,02168035507202","0,00003876016",,,"0,000142097473144531",,"35,6031455993652","34,6101684570313"
8911,"09-01-2018 04:51:39,604","671387,658616","3600,0016",14,66,"4,02832841873169","1,50003623962402","1,4999475479126","0,0000169179","5,61749649047852","0,00003377899",,,"0,000141143798828125",,"35,9990196228027","34,7605247497559"
8992,"09-01-2018 07:33:26,688","681094,777932","3360,0014",14,67,"3,99803018569946","1,50002479553223","1,39992940425873","0,00002016495","5,21619987487793","0,00004026528",,,"0,000153541564941406",,"35,9893798828125","34,7872314453125"
9073,"09-01-2018 10:17:13,127","690921,176752","3240,0015",14,68,"3,98247385025024","1,50000381469727","1,3499151468277","0,00001974939","5,01664209365845","0,0000394272",,,"0,0001678466796875",,"35,9662704467773","34,7680854797363"
9154,"09-01-2018 13:00:57,110","700745,216676","3120,002",14,69,"3,96620988845825","1,5000114440918","1,29991018772125","0,00002266698","4,81800603866577","0,00004525902",,,"0,000135421752929688",,"35,8177680331988","34,6798858642578"
9235,"09-01-2018 15:42:40,497","710448,533704","2880,0005",14,70,"3,93048715591431","1,50003051757813","1,19992661476135","0,00001558359","4,42328405380249","0,00003111932",,,"0,000144004821777344",,"35,9161987304688","34,7731590270996"
9316,"09-01-2018 18:26:24,787","720272,902108","2760,0018",14,71,"3,91052675247192","1,5000057220459","1,14990675449371","0,0000219998","4,22708177566528","0,00004392533",,,"0,000176429748535156",,"35,9400939941406","34,7419052124023"
9397,"09-01-2018 21:08:07,037","729975,104924","2520,0002",14,72,"3,86944246292114","1,50004768371582","1,04992198944092","0,00002224911","3,83821201324463","0,00004442552",,,"0,000184059143066406",,"35,7050245987533","34,7542457580566"
9478,"09-01-2018 23:49:48,341","739676,392436","2280,0008",14,73,"3,83050584793091","1,50000953674316","0,949946582317352","0,00002200066","3,4534637928009","0,00004392353",,,"0,000184059143066406",,"35,6954536437988","34,7398986816406"
9559,"09-02-2018 02:31:30,017","749378,073564","2040,0019",14,74,"3,79672002792358","1,50002098083496","0,849952936172485","0,00001716505","3,07211804389954","0,00003426938",,,"0,000159263610839844",,"35,6862219974013","34,8600692749023"
9640,"09-02-2018 05:15:10,679","759198,769552","1920,0007",14,75,"3,78205919265747","1,50007629394531","0,799943387508392","0,00002208205","2,88263845443726","0,00004409956",,,"0,000162124633789063",,"35,5775756835938","34,8368148803711"
9721,"09-02-2018 07:56:49,716","768897,762804","1680,0009",14,76,"3,75615167617798","1,50004386901855","0,69994467496872","0,00002891479","2,50577640533447","0,00005773409",,,"9,82284545898438E-05",,"35,3472405308274","34,7883796691895"
9802,"09-02-2018 10:38:27,842","778595,904388","1440,0012",14,77,"3,72863912582397","1,50005340576172","0,599961161613464","0,00002274839","2,13158965110779","0,00004541758",,,"0,000145912170410156",,"35,5086098358028","34,7968215942383"
9883,"09-02-2018 13:20:06,115","788294,175644","1200,0002",14,78,"3,68856573104858","1,49999809265137","0,49997141957283","0,00001766827","1,76067543029785","0,00003528293",,,"0,000170707702636719",,"35,9203834533691","35,088191986084"
9964,"09-02-2018 16:01:40,953","797988,976392","960,002",14,79,"3,64429616928101","1,5000057220459","0,399979084730148","0,00002191447","1,39403259754181","0,0000437504",,,"0,00017547607421875",,"35,7693099975586","34,8067283630371"
10045,"09-02-2018 18:43:14,798","807682,858436","720,0028",14,80,"3,60888147354126","1,50004386901855","0,29998591542244","0,00001999961","1,03150188922882","0,00003993764",,,"0,000130653381347656",,"36,0893669128418","34,7951126098633"
10126,"09-02-2018 21:24:50,222","817378,246508","480,0021",14,81,"3,57271432876587","1,50002479553223","0,19998624920845","0,00002333294","0,672372400760651","0,00004657932",,,"0,000168800354003906",,"36,5767793551627","35,143985748291"
10207,"09-03-2018 00:08:23,993","827192,062416","360,0023",14,82,"3,53166723251343","1,50003242492676","0,149996802210808","0,00002216579","0,494627356529236","0,00004424723",,,"0,000535964965820313",,"36,7496681213379","34,7963256835938"
10288,"09-03-2018 02:49:56,933","836885,025756","120,0018",14,83,"3,26612901687622","1,50005722045898","0,0499985367059708","0,00002008419","0,151943773031235","0,00004010353",,,"0,002105712890625",,"38,4264176037384","35,2328338623047"
10369,"09-03-2018 05:33:27,540","846695,611792","2842,8039",17,83,"1,99964475631714","-3,00004291534424","2,36972427368164","2,368814","9,23149585723877","8,304755",,,"-0,000849413409235587",,"38,802405317932","34,8393898010254"
10450,"09-03-2018 08:15:35,055","856423,151792","2640,0015",17,84,"3,12325525283813","-3,00005531311035","2,36959028244019","2,199855","9,23108673095703","7,821079",,,"-0,00133991241455078",,"37,9216156005859","34,8783264160156"
10531,"09-03-2018 10:57:05,148","866113,165512","2400,0005",17,85,"3,25968503952026","-2,99999141693115","2,36930871009827","1,999834","9,22986125946045","7,179281",,,"-0,000314712524414063",,"37,3582915422122","34,6632766723633"
10612,"09-03-2018 13:38:34,935","875802,986024","2160,0029",17,86,"3,32507944107056","-3,00005340576172","2,36914610862732","1,799917","9,2294454574585","6,520671",,,"-0,000256538391113281",,"37,0414199829102","34,7749366760254"
10693,"09-03-2018 16:20:02,649","885490,705984","1920,0019",17,87,"3,38234949111938","-3,00000953674316","2,36823892593384","1,59985","9,22563552856445","5,84936",,,"-0,000219345092773438",,"36,7389754949002","34,6479797363281"
10774,"09-03-2018 19:01:30,367","895178,425744","1680,0006",17,88,"3,44730138778687","-3,00002861022949","2,36853742599487","1,399914","9,22701454162598","5,166954",,,"-0,000342369079589844",,"37,2516822814941","35,1829948425293"
10855,"09-03-2018 21:42:57,477","904865,55708","1440,001",17,89,"3,52745485305786","-2,99997234344482","2,36809515953064","1,199911","9,2252893447876","4,469545",,,"-0,0003662109375",,"37,2954864501953","35,2055702209473"
10936,"09-04-2018 00:24:23,201","914551,246824","1200,0013",17,90,"3,60381555557251","-3,00003719329834","2,36804699897766","0,9999247","9,22524642944336","3,756258",,,"-0,000309944152832031",,"36,8455275918515","34,8117523193359"
11017,"09-04-2018 03:05:48,048","924236,148536","960,0001",17,91,"3,6660304069519","-2,99987697601318","2,36770963668823","0,7999115","9,22381019592285","3,028819",,,"-0,000261306762695313",,"36,7141224783835","34,6277770996094"
11098,"09-04-2018 05:47:11,568","933919,611156","720,0015",17,92,"3,73048067092896","-2,9998664855957","2,36728978157043","0,599948","9,22206592559815","2,289543",,,"-0,000302314758300781",,"36,5254707336426","34,7412643432617"
11179,"09-04-2018 08:28:35,039","943603,137412","480,0011",17,93,"3,79784536361694","-2,99991416931152","2,36732006072998","0,3999672","9,2223482131958","1,536578",,,"-0,000224113464355469",,"36,131065641765","34,6786766052246"
11260,"09-04-2018 11:09:57,759","953285,811","240,0001",17,94,"3,84237241744995","-2,999924659729","2,36674499511719","0,1999846","9,22001266479492","0,7721568",,,"-0,000133514404296875",,"35,4209823608398","34,7627983093262"
11341,"09-04-2018 13:51:19,040","962967,068716","600,007",16,95,"4,15365362167358",0,"2,36667442321777","0,00001674976","9,21989154815674","0,00003344152",,,"-3,05202907139089E-05",,"34,6281377176267","34,7450942993164"
11422,"09-04-2018 16:26:39,597","972287,631976","1800,0045",15,96,"4,20043420791626","0,317878723144531","2,36631941795349","0,00001916427","9,2185115814209","0,00003826126",,,"-1,71661656671158E-05",,"34,8304474015043","34,6984901428223"
11503,"09-04-2018 19:09:58,717","982086,76412","1680,0009",15,97,"4,20045137405396","0,367267608642578","2,35450768470764","0,00001933376","9,1691198348999","0,00003860363",,,"-0,0000152587890625",,"34,9793853759766","34,8099899291992"
11584,"09-04-2018 21:53:16,797","991884,853288","1560,0028",15,98,"4,20043420791626","0,423124313354492","2,34129691123962","0,00002208294","9,11370468139648","0,00004408587",,,"-4,29153442382813E-05",,"35,0190391540527","34,9808197021484"
11665,"09-05-2018 00:36:34,827","1001682,87502","1440,0029",15,99,"4,20039224624634","0,484079360961914","2,32579374313355","0,00002433202","9,04857444763184","0,00004857976",,,"2,19345092773438E-05",,"35,1297645568848","34,6850738525391"
11746,"09-05-2018 03:19:52,209","1011480,238892","1320,0006",15,100,"4,20048189163208","0,550931930541992","2,30873012542725","0,00002199935","8,97700595855713","0,00004392234",,,"2,86102294921875E-06",,"35,1178550720215","34,6397018432617"
11827,"09-05-2018 06:03:09,086","1021277,147712","1200,0019",15,101,"4,20044851303101","0,623470306396484","2,28877139091492","0,00001808415","8,89330768585205","0,00003611225",,,"2,09808349609375E-05",,"35,1817665100098","34,665283203125"
11908,"09-05-2018 08:46:24,729","1031072,808448","1080,0003",15,102,"4,20032167434692","0,699628829956055","2,26613092422485","0,0000171649","8,79822826385498","0,00003426681",,,"1,9073486328125E-05",,"35,2319946289063","34,7369155883789"
11989,"09-05-2018 11:29:39,129","1040867,163964","960,0041",15,103,"4,20044279098511","0,778158187866211","2,24150013923645","0,00002224946","8,69492912292481","0,00004442593",,,"-4,29153442382813E-05",,"35,3055152893066","34,6975440979004"
12070,"09-05-2018 14:12:51,890","1050660,006552","840,0024",15,104,"4,2004189491272","0,856782913208008","2,21338057518005","0,00002199901","8,57694816589356","0,00004392292",,,"2,76565551757813E-05",,"35,3082809448242","34,7558670043945"
12151,"09-05-2018 16:56:04,647","1060452,719868","720,0025",15,105,"4,20037031173706","0,934738159179688","2,18364763259888","0,00001933243","8,45210647583008","0,00003859798",,,"-2,47955322265625E-05",,"35,4187469482422","34,7156257629395"
12232,"09-05-2018 19:39:15,841","1070243,85902","600,0015",15,106,"4,20045804977417","1,01241493225098","2,15101194381714","0,00001925018","8,31534099578857","0,00003843773",,,"2,00271606445313E-05",,"35,4646835327148","34,7390823364258"
12313,"09-05-2018 22:22:28,200","1080036,244956","480,0018",15,107,"4,20033884048462","1,08769035339355","2,11632680892944","0,00002516888","8,16955471038818","0,00005025227",,,"-1,9073486328125E-05",,"35,4254722595215","34,69775390625"
12394,"09-06-2018 01:05:38,703","1089826,729748","360,0016",15,108,"4,20038557052612","1,16364669799805","2,07808446884155","0,00001683274","8,00898742675781","0,00003361065",,,"2,86102294921875E-05",,"35,6154823303223","34,7306900024414"
12475,"09-06-2018 03:50:49,238","1099737,280876","360,0022",15,109,"4,20043420791626","1,16514778137207","2,07842373847961","0,00002208368","8,01035404205322","0,00004409207",,,"-2,86102294921875E-05",,"35,5514373779297","34,7873611450195"
12556,"09-06-2018 06:33:58,867","1109526,848764","240,0025",15,110,"4,20036745071411","1,2448844909668","2,03771734237671","0,00001691671","7,83952856063843","0,00003377688",,,"-4,38690185546875E-05",,"35,5597686997767","34,7244491577148"
12637,"09-06-2018 09:17:06,924","1119314,97566","120,0038",15,111,"4,20037126541138","1,34339714050293","1,99431073665619","0,00002216667","7,65735721588135","0,00004426009",,,"-4,29153442382813E-05",,"35,619312286377","34,7878532409668"
12718,"09-06-2018 12:00:13,651","1129101,706408","4672,5053",14,112,"4,20000123977661","1,50006103515625","1,94677662849426","0,0000222512","7,45782327651978","0,00004442313",,,"9,8574435414485E-05",,"35,6456260681152","34,7423667907715"
12799,"09-06-2018 14:43:27,781","1138895,887312","4560,0023",14,113,"4,18297433853149","1,50000190734863","1,89989125728607","0,00001700018","7,26136302947998","0,00003394581",,,"0,000179290771484375",,"35,6383819805653","34,7744140625"
12880,"09-06-2018 17:26:35,063","1148683,096104","4440,0029",14,114,"4,16260957717896","1,50005149841309","1,84989082813263","0,00002016606","7,05281400680542","0,00004026397",,,"0,000185012817382813",,"35,5765953063965","34,6567687988281"
12961,"09-06-2018 20:09:40,278","1158468,337516","4320,0022",14,115,"4,14122915267944","1,50003051757813","1,79991567134857","0,00002391805","6,84536552429199","0,00004775903",,,"0,000165939331054688",,"35,6353569030762","34,7025604248047"
13042,"09-06-2018 22:52:44,924","1168253,05494","4200,0018",14,116,"4,11994600296021","1,49999618530273","1,74992573261261","0,00002225024","6,63900375366211","0,00004442102",,,"0,000194549560546875",,"35,5883293151856","34,7203941345215"
13123,"09-07-2018 01:35:49,737","1178037,772164","4080,0011",14,117,"4,09973382949829","1,50004577636719","1,69992744922638","0,0000273335","6,43376541137695","0,00005457769",,,"0,0001678466796875",,"35,8953704833984","34,9319000244141"
13204,"09-07-2018 04:18:53,544","1187821,573184","3960,0019",14,118,"4,08069562911987","1,50002288818359","1,64986634254456","0,00002216665","6,22881937026978","0,00004425801",,,"0,000130653381347656",,"35,7800140380859","34,739429473877"
13285,"09-07-2018 07:01:56,697","1197604,716744","3840,0004",14,119,"4,06323480606079","1,50001907348633","1,59983670711517","0,00002233142","6,02525520324707","0,000044585",,,"0,000151634216308594",,"35,7698593828332","34,6857414245606"
13366,"09-07-2018 09:44:58,770","1207386,814428","3720,0018",14,120,"4,04696893692017","1,50002670288086","1,5498389005661","0,00002191446","5,82259941101074","0,00004375972",,,"0,000140190124511719",,"35,8118133544922","34,7530632019043"
13447,"09-07-2018 12:30:00,529","1217288,647468","3720,0006",14,121,"4,0470175743103","1,50008964538574","1,54981660842896","0,00002241739","5,82258319854736","0,00004475942",,,"0,000109672546386719",,"35,8694610873983","34,7560920715332"
13528,"09-07-2018 15:13:00,487","1227068,515128","3600,0001",14,122,"4,03143644332886","1,50005340576172","1,49983072280884","0,00001916633","5,62076187133789","0,00003826746",,,"0,000126838684082031",,"35,9295921675079","34,7357139587402"
13609,"09-07-2018 17:55:59,613","1236847,597956","3480,0012",14,123,"4,01633405685425","1,50006866455078","1,44985270500183","0,00002416932","5,41975593566895","0,00004825274",,,"0,000164985656738281",,"35,8816337585449","34,6731719970703"
13690,"09-07-2018 20:38:56,669","1246624,713004","3360,0006",14,124,"4,00116682052612","1,50006675720215","1,3998863697052","0,00002033287","5,2195258140564","0,00004059759",,,"0,000138282775878906",,"35,7602310180664","34,7341537475586"
13771,"09-07-2018 23:21:54,581","1256402,616684","3240,0022",14,125,"3,98580980300903","1,50005722045898","1,34987139701843","0,00002216328","5,01968812942505","0,00004425146",,,"0,0001373291015625",,"35,9395522922072","34,7098808288574"
13852,"09-08-2018 02:06:51,718","1266299,732632","3240,0025",14,126,"3,98587942123413","1,50003623962402","1,34988129138947","0,00002425093","5,01991367340088","0,00004842009",,,"9,72747802734375E-05",,"35,9799194335938","34,8314590454102"
13933,"09-08-2018 04:49:50,370","1276078,420344","3120,0017",14,127,"3,96972513198853","1,50006866455078","1,29985344409943","0,00001566593","4,8208475112915","0,00003128187",,,"0,000123023986816406",,"35,9028472900391","34,7471237182617"
14014,"09-13-2018 14:34:11,927","1285748,120104","2880,0028",14,128,"3,94887113571167","1,50000381469727","1,19996440410614","0,000028416","4,44667625427246","0,00005671455",,,"0,000113487243652344",,"34,3001555794429","33,1777458190918"
14095,"09-13-2018 15:51:55,438","1290411,588208","12,4671",20,129,"2,75156164169312","1,50000953674316","0,00518898759037256","0,00001741754","0,0136541044339538","0,00003476018",,,"0,0146713256835938",,"36,6754501521807","33,3116340637207"
14176,"09-13-2018 15:57:29,836","1290745,986408","346,8653",20,129,"3,54116487503052","1,49998664855957","0,144517496228218","0,00001741754","0,477639526128769","0,00003476018",,,"0,000540733337402344",,"34,8565254211426","33,2609519958496"
14257,"09-13-2018 16:11:00,123","1291556,273208","1157,1521",20,129,"3,69596338272095","1,50001907348633","0,48212668299675","0,00001741754","1,70241391658783","0,00003476018",,,"0,000193595886230469",,"33,8750648498535","33,2004470825195"
14338,"09-13-2018 16:24:30,392","1292366,542008","1967,4209",20,129,"3,8028998374939","1,50005722045898","0,819732487201691","0,00001741754","2,97015118598938","0,00003476018",,,"0,000187873840332031",,"33,8559913635254","33,1965408325195"
14419,"09-13-2018 16:38:00,656","1293176,805608","2777,6845",20,129,"3,93139123916626","1,50005149841309","1,15733528137207","0,00001741754","4,27467107772827","0,00003476018",,,"0,00022125244140625",,"34,2324066162109","33,2300033569336"
14500,"09-13-2018 16:51:30,912","1293987,061708","3587,9406",20,129,"4,04249811172485","1,50000190734863","1,49492931365967","0,00001741754","5,62156820297241","0,00003476018",,,"0,000154495239257813",,"34,2317581176758","33,180591583252"
14581,"09-13-2018 17:05:01,183","1294797,333108","4398,212",20,129,"4,16906309127808","1,50004959106445","1,83252823352814","0,00001741754","7,00628232955933","0,00003476018",,,"0,000184059143066406",,"34,0158958435059","33,2422218322754"
14662,"09-13-2018 17:50:43,692","1297539,95346","159,1511",23,129,"3,96976041793823","-1,49986934661865","2,33689546585083","0,06631583","9,12361526489258","0,2640087",,,"-8,392333984375E-05",,"33,1266403198242","33,2830047607422"
14743,"09-13-2018 18:04:13,972","1298350,23306","969,4307",23,129,"3,90334558486938","-1,49990940093994","2,33689546585083","0,4038917","9,12361526489258","1,594406",,,"-0,000117301940917969",,"33,5170440673828","33,246883392334"
14824,"09-13-2018 18:17:44,227","1299160,48776","1779,6854",23,129,"3,78133249282837","-1,49988174438477","2,33689546585083","0,7414697","9,12361526489258","2,891372",,,"-0,000156402587890625",,"33,6187973022461","33,2616348266602"
14905,"09-13-2018 18:31:14,506","1299970,76706","2589,9647",23,129,"3,66769742965698","-1,49984645843506","2,33689546585083","1,079043","9,12361526489258","4,149183",,,"-0,000148773193359375",,"33,4717029690111","33,2518615722656"
14986,"09-13-2018 18:44:44,763","1300781,02436","3400,222",23,129,"3,53878545761108","-1,49983024597168","2,33689546585083","1,41662","9,12361526489258","5,365133",,,"-0,0001068115234375",,"33,3837126257712","33,3154106140137"
15067,"09-13-2018 18:58:15,080","1301591,34116","4210,5388",23,129,"3,44193124771118","-1,50019359588623","2,33689546585083","1,754235","9,12361526489258","6,543425",,,"-0,000173568725585938",,"33,7299270629883","33,3055725097656"
15148,"09-13-2018 19:11:45,391","1302401,65176","5020,8494",23,129,"3,31073999404907","-1,49988842010498","2,33689546585083","2,091824","9,12361526489258","7,683615",,,"-0,000215530395507813",,"33,925785174215","33,2542381286621"
15229,"09-13-2018 19:20:53,079","1302949,33996","5568,5376",23,129,"2,62249326705933","-1,49988174438477","2,33689546585083","2,320001","9,12361526489258","8,394785",,,"-0,00712203979492188",,"34,4691735718052","33,3199115724859"
15310,"09-13-2018 19:31:49,323","1303605,44752","4,6234",20,130,"2,92381048202515","1,50003242492676","0,00192089134361595",0,"0,00556848617270589",0,,,"0,0105295181274414",,"33,659162807253","33,3175392150879"
15391,"09-13-2018 19:40:02,276","1304098,40022","497,5761",20,130,"3,59109544754028","1,50004386901855","0,207314416766167",0,"0,710058569908142",0,,,"0,000138282775878906",,"33,3750915527344","33,2910919189453"
15472,"09-13-2018 19:53:32,553","1304908,67772","1307,8536",20,130,"3,72155904769897","1,50005149841309","0,544928431510925",0,"1,94328284263611",0,,,"0,000188827514648438",,"33,6259802395276","33,2184753417969"
15553,"09-13-2018 20:07:02,811","1305718,93572","2118,1116",20,130,"3,81900453567505","1,50003051757813","0,882521688938141",0,"3,21641898155212",0,,,"0,000165939331054688",,"33,9128150939941","33,3370895385742"
15634,"09-13-2018 20:20:33,085","1306529,20892","2928,3848",20,130,"3,95092821121216","1,50003433227539","1,22013676166534",0,"4,52760744094849",0,,,"0,00020599365234375",,"34,2392041474208","33,3103485107422"
15715,"09-13-2018 20:34:03,370","1307339,49372","3738,6696",20,130,"4,05868101119995","1,50002479553223","1,55774509906769",0,"5,88011121749878",0,,,"0,000157356262207031",,"34,0985491883027","33,2677154541016"
15796,"09-13-2018 20:47:33,647","1308149,77112","4548,947",20,130,"4,19080972671509","1,49999237060547","1,89535474777222",0,"7,27159070968628",0,,,"0,000154495239257813",,"33,9944305419922","33,218074798584"
15877,"09-13-2018 21:33:18,664","1310894,885564","288,001",23,130,"3,96027326583862","-1,49986934661865","2,34438920021057","0,119984","9,15763378143311","0,4768294",,,"-0,0001220703125",,"33,2854042053223","33,36083984375"
15958,"09-13-2018 21:46:48,975","1311705,196064","1098,3115",23,130,"3,88541555404663","-1,49991130828857","2,34438920021057","0,4575653","9,15763378143311","1,803517",,,"-0,000140190124511719",,"33,5911446320317","33,3673515319824"
16039,"09-13-2018 22:00:19,238","1312515,459864","1908,5753",23,130,"3,76458024978638","-1,4998836517334","2,34438920021057","0,7951394","9,15763378143311","3,094097",,,"-0,000126838684082031",,"33,6845282715241","33,3368606567383"
16120,"09-13-2018 22:13:49,514","1313325,735764","2718,8512",23,130,"3,64775991439819","-1,49987602233887","2,34438920021057","1,132707","9,15763378143311","4,345884",,,"-0,000173568725585938",,"33,3751837030286","33,2544212341309"
16201,"09-13-2018 22:27:19,832","1314136,053164","3529,1686",23,130,"3,52239751815796","-1,49983882904053","2,34438920021057","1,470288","9,15763378143311","5,555222",,,"-0,00019073486328125",,"33,4062347412109","33,3007125854492"
16282,"09-13-2018 22:40:50,132","1314946,353164","4339,4686",23,130,"3,42303133010864","-1,49983024597168","2,34438920021057","1,807879","9,15763378143311","6,72836",,,"-0,000109672546386719",,"33,8129043884146","33,3158493041992"
16363,"09-13-2018 22:54:20,429","1315756,650264","5149,7657",23,130,"3,26630163192749","-1,49986362457275","2,34438920021057","2,14546","9,15763378143311","7,861214",,,"-0,000538825988769531",,"34,0508380616827","33,3316268920898"
16444,"09-13-2018 23:01:41,981","1316198,202864","5591,3183",23,130,"2,49795007705688","-1,49984264373779","2,34438920021057","2,329419","9,15763378143311","8,421515",,,"-0,00858306884765625",,"34,5181119754771","33,321426496473"
16525,"09-13-2018 23:12:38,280","1316854,387636","21,4519",20,131,"3,04904890060425","1,49999809265137","0,00893648900091648",0,"0,0265451893210411",0,,,"0,00572776794433594",,"33,6618118286133","33,3173027038574"
16606,"09-13-2018 23:22:40,130","1317456,238636","623,3029",20,131,"3,60918092727661","1,49997901916504","0,259691059589386",0,"0,898409307003021",0,,,"0,000135421752929688",,"33,5367277953441","33,3758583068848"
16687,"09-13-2018 23:36:10,395","1318266,503036","1433,5673",20,131,"3,73995637893677","1,50004386901855","0,597293794155121",0,"2,1383330821991",0,,,"0,000126838684082031",,"33,635383605957","33,4043807983398"
16768,"09-13-2018 23:49:40,659","1319076,767036","2243,8313",20,131,"3,83686494827271","1,5000057220459","0,934902489185333",0,"3,41648721694946",0,,,"0,000172615051269531",,"33,9783741302486","33,3612670898438"
16849,"09-14-2018 00:03:10,935","1319887,043336","3054,1076",20,131,"3,96906805038452","1,49999618530273","1,27250266075134",0,"4,7343955039978",0,,,"0,000171661376953125",,"34,2510030762242","33,3547592163086"
16930,"09-14-2018 00:16:41,244","1320697,352436","3864,4167",20,131,"4,07564401626587","1,50002479553223","1,61012172698975",0,"6,09242963790894",0,,,"0,00014495849609375",,"34,1338920593262","33,3743858337402"
17011,"09-14-2018 00:35:04,101","1321800,250608","360,0031",21,131,"4,20041227340698","1,13364219665527","2,04773235321045",0,"7,91071605682373",0,,,"4,76837158203125E-06",,"33,9007301330566","33,2882499694824"
17092,"09-14-2018 01:15:52,760","1324248,930772","408,4927",23,131,"3,95330667495728","-1,49982166290283","2,34458518028259","0,17018","9,15761756896973","0,6754185",,,"-6,29425048828125E-05",,"33,4028358459473","33,3370895385742"
17173,"09-14-2018 01:29:23,046","1325059,217572","1218,7795",23,131,"3,86673974990845","-1,49986171722412","2,34458518028259","0,5077572","9,15761756896973","1,998003",,,"-0,000195503234863281",,"33,6761322021484","33,3912162780762"
17254,"09-14-2018 01:42:53,269","1325869,440172","2029,0021",23,131,"3,74845743179321","-1,49987411499023","2,34458518028259","0,8453004","9,15761756896973","3,282413",,,"-9,5367431640625E-05",,"33,6734313964844","33,3763542175293"
17335,"09-14-2018 01:56:23,505","1326679,676472","2839,2384",23,131,"3,62782049179077","-1,49987983703613","2,34458518028259","1,182843","9,15761756896973","4,528101",,,"-0,000158309936523438",,"33,3464246886859","33,3549882111232"
17416,"09-14-2018 02:09:53,721","1327489,892472","3649,4544",23,131,"3,50774621963501","-1,49993991851807","2,34458518028259","1,520394","9,15761756896973","5,731122",,,"-0,0001373291015625",,"33,3311729431152","33,3327102661133"
17497,"09-14-2018 02:23:23,917","1328300,088472","4459,6504",23,131,"3,40158700942993","-1,49994277954102","2,34458518028259","1,857938","9,15761756896973","6,898924",,,"-0,000189781188964844",,"33,8409080505371","33,3705368041992"
17578,"09-14-2018 02:36:54,124","1329110,295372","5269,8573",23,131,"3,18388605117798","-1,49987411499023","2,34458518028259","2,195484","9,15761756896973","8,022372",,,"-0,000868797302246094",,"34,0839955263253","33,2930602932005"
17659,"09-14-2018 02:42:28,120","1329444,291672","5603,8536",23,131,"2,37768697738647","-1,49985504150391","2,34458518028259","2,334623","9,15761756896973","8,433848",,,"-0,0114498138427734",,"34,47784","33,2553693253316"
17740,"09-14-2018 02:53:20,016","1330096,097428","30,0016",27,132,"2,75950384140015",0,0,0,0,0,,,"0,000253677368164063",,"33,6061783485004","33,2856307110075"
17771,"09-14-2018 02:53:50,021","1330126,102928","60,0071",27,132,"2,76526021957397",0,0,0,0,0,,,"0,000163078308105469",,"33,55671","33,28653"